time,seconds_elapsed,z,y,x
1782853733372717800,0.0747177734375,-1.9572516738712786,0.7026829896867275,0.6083120036620646
1782853733382701800,0.084701904296875,-1.6204063218921423,0.9100016519121825,0.6762824740171433
1782853733392685800,0.094685791015625,-1.4854390485197304,0.9041891662411391,0.6847520500682294
1782853733402669800,0.104669921875,-1.5172972450733184,0.7369456170335411,0.6382943964064121
1782853733412654800,0.11465478515625,-1.7349416326105593,0.5802810372464359,0.5293404294842854
1782853733422638800,0.124638916015625,-1.892005586978793,0.49543257039189337,0.4906369701458141
1782853733432623900,0.134623779296875,-1.9587556486934423,0.3866092806447297,0.46181423229798674
1782853733442609000,0.14460888671875,-1.7931676116079092,0.23764234268814324,0.29124099067840725
1782853733452593000,0.154593017578125,-1.2239929286569355,0.15721388423293828,0.09494089486710727
1782853733462578200,0.164578125,-0.6488707354784011,0.22722433598302302,-0.04583619729522615
1782853733472562000,0.17456201171875,-0.09690788409113883,0.4140758181106299,-0.20909020194262265
1782853733482547000,0.184546875,0.6006055940032005,0.5369817745503038,-0.21548600392695516
1782853733492531000,0.194531005859375,1.0459756181091069,0.5101452786162496,-0.03441543415519409
1782853733502516000,0.204515869140625,1.1225906557559966,0.46861850548535583,0.15882681758860126
1782853733512500000,0.2145,1.2338771938115358,0.4894220779307186,0.35481172823719676
1782853733522485000,0.224485107421875,1.4460440267205237,0.46742359661236405,0.45021052293963726
1782853733532469000,0.234468994140625,1.6710399460643528,0.34534824577793477,0.4812798341378569
1782853733542454000,0.2444541015625,1.9012632446676492,0.159667853256315,0.5098844357229769
1782853733552439000,0.25443896484375,2.203327206122875,0.08038724966198206,0.4932312609553337
1782853733562423000,0.264423095703125,2.384549450191855,0.06417115113735199,0.4807787527479231
1782853733572408000,0.274407958984375,2.5371985107272863,0.029065497095137834,0.3849119021423161
1782853733582392000,0.28439208984375,2.8262007460355756,0.0069517188340425485,0.20789578625997526
1782853733592376800,0.294376953125,3.1688059767156838,-0.007618804440647363,0.053778132743015884
1782853733602361000,0.304361083984375,3.4108576602786775,-0.08548676475808024,-0.03842076080641709
1782853733612345900,0.314345947265625,3.463866196888685,-0.16454773425236344,-0.08719676528004928
1782853733622329900,0.324329833984375,3.357006243103742,-0.17678426162153482,-0.07866122045381925
1782853733632315000,0.33431494140625,3.235800368580222,-0.22957900935038922,-0.010975037799682468
1782853733642299000,0.344298828125,3.170116474792361,-0.3493886072099209,-0.022898571963235734
1782853733652284000,0.354283935546875,3.0183173090845345,-0.3540111524440348,-0.016446948138438163
1782853733662269000,0.36426904296875,2.775460738879442,-0.26435221656784413,0.03180032888650894
1782853733672253000,0.3742529296875,2.4880735375523564,-0.26789105821847914,0.13211455082241444
1782853733682238000,0.384238037109375,2.0131617771416903,-0.3234045633867383,0.14951879968568682
1782853733692222000,0.394221923828125,1.5049638332009314,-0.3539415943391621,0.0004500087898224592
1782853733702207000,0.40420703125,1.2278934432268143,-0.3359681307531893,-0.14044533945731819
1782853733712191000,0.41419091796875,0.9663058690667152,-0.28431027809977527,-0.1521480522107333
1782853733722175700,0.42417578125,0.43558454315066336,-0.24197379602119326,-0.012255788050423143
1782853733732159700,0.43415966796875,-0.14837386743426323,-0.19907266579717398,0.1268576714738272
1782853733742145000,0.44414501953125,-0.5383715484082698,-0.16709069673344493,0.21570680707078427
1782853733752130000,0.454130126953125,-0.8441641749978065,-0.08911459986642002,0.28512568613588807
1782853733762114000,0.464114013671875,-1.0632552542120217,-0.018268062618374825,0.4329769179355353
1782853733772099000,0.47409912109375,-1.272457976618409,0.056761021011322736,0.5011171188343316
1782853733782083000,0.4840830078125,-1.480171337249875,0.1200024900831282,0.45757966346815226
1782853733792068000,0.494068115234375,-1.647790587902069,0.19976853910684583,0.2805899606687017
1782853733802052000,0.504052001953125,-1.7809657171607016,0.40393297508507964,-0.1350880136752501
1782853733812036900,0.514036865234375,-2.073055397090316,0.5366150601297617,-0.6249317876167595
1782853733822021000,0.524021240234375,-2.4249001652806994,0.47833574350997804,-0.9982802393458783
1782853733832006000,0.534005859375,-2.775870488724112,0.30239114758297797,-1.214640870682895
1782853733841990000,0.543989990234375,-2.9636253494322298,0.11275894869565962,-1.1161598920561373
1782853733851975000,0.553974853515625,-3.2271587969630953,0.008061725902557373,-0.9270599734146148
1782853733861960000,0.5639599609375,-3.5056337930381294,0.05087956175729632,-0.8421004474010318
1782853733871944000,0.57394384765625,-3.5125048478513956,0.16601283836886285,-0.8480356096036732
1782853733881929000,0.583928955078125,-3.4548481931746005,0.24549992432072756,-0.8183290381260215
1782853733891913000,0.593912841796875,-3.5512773538380857,0.2431367023207247,-0.7710575838632882
1782853733901898000,0.60389794921875,-3.6685832983136173,0.17778320953100918,-0.6640463850393891
1782853733911882000,0.613882080078125,-3.6627678900331255,0.20343020341955123,-0.45508828504383564
1782853733921867000,0.623866943359375,-3.4174767861574886,0.3431690020427108,-0.2795317385863513
1782853733931851000,0.63385107421875,-3.210173759892583,0.5379029810484498,-0.2892357518032193
1782853733941835800,0.643835693359375,-2.9171050057977435,0.7696526855014264,-0.4505106383973732
1782853733951819800,0.65381982421875,-2.25697404063642,1.0212897243376822,-0.6518162143457681
1782853733961804800,0.6638046875,-1.7015215935677288,1.2618062342226504,-0.8527164608962834
1782853733971789800,0.673789794921875,-1.3758008621931075,1.3126716213241219,-0.9883556421808898
1782853733981773800,0.68377392578125,-0.9647966335475444,1.159648320648819,-1.0428400234971196
1782853733991759000,0.693759033203125,-0.49280631354153154,0.9354341993324458,-0.8753624463379382
1782853734001742800,0.703742919921875,-0.07253858198821544,0.6124488842710852,-0.6389574634250254
1782853734011728100,0.71372802734375,0.3107166389882564,0.2541134388871491,-0.35164698059596117
1782853734021712100,0.723712158203125,0.7329676533132791,0.044057022260874504,-0.184380470637884
1782853734031697200,0.733697265625,1.3048603630512952,0.01134074757322669,-0.14349175794851035
1782853734041681200,0.74368115234375,1.8197341314941644,0.08229640775155275,-0.167308029278554
1782853734051666000,0.753666015625,2.2852222299993037,0.1197073795940727,-0.2316717438459396
1782853734061651000,0.76365087890625,2.707663798460364,0.12300598274804651,-0.27748609463553875
1782853734071635000,0.773635009765625,3.0005607031196355,0.10212090603169054,-0.23532668615691363
1782853734081620000,0.783619873046875,3.1995810542076826,0.045736353649944064,-0.19500859469603746
1782853734091604000,0.79360400390625,3.3532185412585735,-0.0232021214870736,-0.20239388264175504
1782853734101589000,0.803589111328125,3.385636709782481,-0.18863712343536315,-0.191102929027006
1782853734111573000,0.813572998046875,3.3963357984513043,-0.4350117482313886,-0.17353201835993676
1782853734121558000,0.82355810546875,3.361009633526206,-0.66993354338184,-0.11281593957990407
1782853734131542000,0.8335419921875,3.1467116338074206,-0.8342400162242353,-0.0631214594213292
1782853734141527000,0.843527099609375,2.9320266805976627,-0.9639911623835563,-0.042214463134109974
1782853734151511000,0.853510986328125,2.8244781600266693,-1.0936873634852469,-0.05944872572533786
1782853734161495800,0.863495849609375,2.714818346390128,-1.2038153791554271,-0.13506748234387486
1782853734171480800,0.873480712890625,2.5118816986411807,-1.2148530521288514,-0.18490469544138757
1782853734181464800,0.88346484375,2.3266075488328934,-1.1849414595983923,-0.20000358997173606
1782853734191449900,0.893449951171875,2.089332578152418,-1.1698374139688907,-0.21143457311168312
1782853734201433900,0.903433837890625,1.8235177416861057,-1.1239596790868789,-0.2275644546575844
1782853734211419000,0.9134189453125,1.5684306354612112,-1.1018204010583459,-0.2343558318307623
1782853734221403000,0.92340283203125,1.2966823172926902,-1.1627516204264015,-0.20554854728039354
1782853734231388000,0.933387939453125,0.9762363114506005,-1.2896607480928302,-0.16771277415454386
1782853734241372000,0.943371826171875,0.6733376527369022,-1.2957106957815587,-0.15399148812033236
1782853734251357000,0.95335693359375,0.4486848477423191,-1.2562415858328342,-0.07530585474446415
1782853734261342000,0.963342041015625,0.1103115555435419,-1.2993848542496562,0.011484868751652538
1782853734271326000,0.973325927734375,-0.29804654250741003,-1.3980284760922193,0.0749537168385461
1782853734281311000,0.98331103515625,-0.63721653804183,-1.5238000510960816,0.11017759043294936
1782853734291295000,0.993294921875,-0.8790116164952516,-1.5135019444435833,0.08853321978189051
1782853734301280000,1.003280029296875,-1.0546394015580416,-1.4136365257211028,0.14452837098725138
1782853734311264000,1.013263916015625,-1.2699509622335434,-1.276608812687546,0.22181948126479983
1782853734321249000,1.0232490234375,-1.3992875362426043,-1.0609876746062188,0.22206461513228712
1782853734331233000,1.03323291015625,-1.5532494329422712,-0.8376620996274053,0.19009141389690337
1782853734341218000,1.043218017578125,-1.8972920029491185,-0.7339438048690557,0.3083142174890265
1782853734351203000,1.053203125,-2.1754501881599424,-0.7532549467995763,0.46259223093315954
1782853734361187000,1.06318701171875,-2.4374457585990426,-0.7525056628022343,0.43525158486925064
1782853734371171800,1.073171875,-2.796563148140907,-0.7090030595537274,0.3224374353876337
1782853734381155800,1.08315576171875,-3.0145547416806218,-0.633504385650903,0.18880798649024216
1782853734391142000,1.093141845703125,-3.221398918262124,-0.5938293048013001,-0.0380567954653874
1782853734401126000,1.1031259765625,-3.271023073130846,-0.604166099496372,-0.16292700118273495
1782853734411111000,1.11311083984375,-3.301576616826653,-0.6904504078403115,-0.18048929015193133
1782853734421095000,1.123094970703125,-3.355082581564784,-0.7899420248143374,-0.05867635311335325
1782853734431080200,1.133080078125,-3.481785299938917,-0.7907039490975439,0.1242265009863302
1782853734441064000,1.14306396484375,-3.5198902819275855,-0.7612770713441074,0.2533866955151781
1782853734451049200,1.15304931640625,-3.3765111540406942,-0.7309092594787479,0.3507646082708612
1782853734461034000,1.163033935546875,-3.166325265815854,-0.5905918572500348,0.44475364577323195
1782853734471018000,1.17301806640625,-2.790302334180474,-0.3669985712457448,0.5522592039853335
1782853734481003000,1.1830029296875,-2.3033225348353383,-0.1377080234479159,0.6328415378279983
1782853734490987000,1.192987060546875,-1.9677257216125725,0.05014247965440154,0.6657633450251073
1782853734500972000,1.202971923828125,-1.7939608078122138,0.0987594302419573,0.7750522064574062
1782853734510956000,1.2129560546875,-1.6686451598823069,0.006609700463339686,0.8383844225525856
1782853734520941000,1.222941162109375,-1.5953683267474175,-0.10614720240570605,0.7724505725916475
1782853734530925000,1.232925048828125,-1.630543100503087,-0.18262451208233832,0.5763524656258523
1782853734540910000,1.24291015625,-1.84786658552289,-0.10044394926279783,0.3647663917468861
1782853734550894800,1.252894775390625,-2.1016876173347234,0.049739524876698846,0.07364486272968351
1782853734560879000,1.262879150390625,-1.9758885698020456,0.043893210001289845,-0.3179270087584853
1782853734570863900,1.27286376953125,-1.5692729315042495,0.012770268919691442,-0.6094334089074284
1782853734580847900,1.282847900390625,-1.1477642599791287,0.062458721196278925,-0.6291520356602966
1782853734590833000,1.2928330078125,-0.7577601492643355,0.16882387720160186,-0.4768455414848402
1782853734600817000,1.30281689453125,-0.42776247122287747,0.23814999994933603,-0.316459858815372
1782853734610802000,1.312802001953125,-0.09583879355490207,0.2096253317326307,-0.2066808209796436
1782853734620786000,1.322785888671875,0.30683482911884785,0.2191182594820857,-0.18670683122621848
1782853734630771000,1.33277099609375,0.7284896311163902,0.32602307532206176,-0.12628228273866698
1782853734640756000,1.342755859375,1.0660855092018842,0.4269019088707864,-0.01666189693021588
1782853734650740000,1.352739990234375,1.4918763880908488,0.3824803641464561,0.05728195787919685
1782853734660725000,1.36272509765625,1.9881471628725527,0.358289633480832,0.05768978976141661
1782853734670709000,1.372708984375,2.403521277165413,0.33938904511258006,0.07471500814526807
1782853734680694000,1.382694091796875,2.789226229381561,0.3168212394736707,0.06366432042664383
1782853734690677800,1.392677734375,3.176675979438424,0.31592692098245023,0.025907868747855535
1782853734700663000,1.4026630859375,3.498569846001267,0.3851445418544113,0.07517464784653857
1782853734710647000,1.41264697265625,3.7312978209018706,0.4014823670625686,0.01929004434356466
1782853734720632000,1.422632080078125,3.962848568716645,0.42279213546440003,0.019060071512591092
1782853734730617000,1.4326171875,4.1268326777368785,0.4325977824248373,0.04505439926777035
1782853734740601000,1.44260107421875,4.116057016700506,0.40047991202175615,0.09748407654389739
1782853734750586000,1.452586181640625,4.000657782629132,0.3856273569352925,0.14413327072244136
1782853734760570000,1.462570068359375,3.9313966148763893,0.4076563795223832,0.17967430224092676
1782853734770555100,1.47255517578125,3.813610777929425,0.40952261178568006,0.22851496031545102
1782853734780539100,1.4825390625,3.5518116068452597,0.45165451120287176,0.2533524827183224
1782853734790524000,1.49252392578125,3.1435107919394967,0.5804957029104233,0.3000347754488699
1782853734800508000,1.5025078125,2.6957646863520144,0.6560097935780882,0.4014504010217264
1782853734810493000,1.512492919921875,2.1640105102568863,0.5675722161903977,0.48174525969251986
1782853734820478000,1.52247802734375,1.6573592112362383,0.4612728188976645,0.5566060010179877
1782853734830462000,1.5324619140625,1.2690963912308215,0.4789074059180915,0.640893326858431
1782853734840447000,1.542447021484375,0.978330068859458,0.6104169400520623,0.7114168426971882
1782853734850431000,1.552430908203125,0.7044096673488617,0.687143621379882,0.8793573611930012
1782853734860416000,1.562416015625,0.3687771982908249,0.7649968225196003,1.134974409576133
1782853734870400000,1.57239990234375,0.07636895393133163,0.912221958310157,1.3827125412777066
1782853734880385000,1.582385009765625,-0.20511048465669154,1.1259208230920135,1.5817369840189814
1782853734890369000,1.592369140625,-0.6148918935090303,1.3110305761188268,1.7464209118716418
1782853734900353800,1.602353759765625,-1.2204887199282646,1.3685932689018547,1.8573560061410068
1782853734910338800,1.6123388671875,-1.793082271412015,1.450132611208409,1.7790189670071004
1782853734920322800,1.62232275390625,-2.2691075460225343,1.7561925104320049,1.4308970187321304
1782853734930308000,1.63230810546875,-2.8696839139312504,2.215005953478813,0.9416684175468981
1782853734940291800,1.642291748046875,-3.4196453623682257,2.558382753053307,0.44891869303081183
1782853734950277000,1.652277099609375,-3.9164965673863885,2.6149761624127623,0.14134360347129404
1782853734960261000,1.66226123046875,-4.446512375381588,2.278527993057668,0.13466887494772672
1782853734970246100,1.67224609375,-4.719691603136062,1.7456018505737185,0.147321947228536
1782853734980230100,1.682230224609375,-4.797432429942488,1.1693385976012796,0.2280003253242001
1782853734990215200,1.692215087890625,-4.806227730816603,0.5871450777970254,0.21718243258129805
1782853735000200000,1.702199951171875,-4.802859131166339,0.1878651161495596,0.040725393620133395
1782853735010184000,1.712183837890625,-4.612295642778277,0.02369184123277664,-0.14553535607270895
1782853735020169000,1.7221689453125,-4.341681881597638,-0.16783632746897637,-0.26705314608961345
1782853735030153000,1.732153076171875,-4.06778310739696,-0.4722545604327693,-0.24979469890519976
1782853735040138000,1.742137939453125,-3.5846097145974634,-0.8370131341993808,-0.18736125828064978
1782853735050122000,1.7521220703125,-3.0665678375124927,-0.8959921965863555,-0.24072262691631913
1782853735060107000,1.76210693359375,-2.4932974096804856,-0.5039218740567565,-0.41698936746977266
1782853735070091000,1.772091064453125,-1.8247937529712914,0.09774616154618561,-0.7562398078292608
1782853735080076000,1.782075927734375,-1.3056705103904007,0.4594052714601159,-1.0531227133847771
1782853735090061000,1.79206103515625,-1.0176783289074898,0.48505485916454344,-1.2779380154646933
1782853735100045000,1.802045166015625,-0.829770907986164,0.3248344500593841,-1.3847618750229478
1782853735110029800,1.81202978515625,-0.7405518248319626,0.07553776380419731,-1.4096857422687112
1782853735120014000,1.82201416015625,-0.6324427477687596,-0.3518915299415588,-1.3585954603701829
1782853735129998800,1.831998779296875,-0.4860334584057331,-0.7989169931042939,-1.2591054508313535
1782853735139982800,1.84198291015625,-0.18374679411053657,-1.0596689201578497,-1.1552029586125165
1782853735149968000,1.8519677734375,0.270420284435153,-1.1571864605799316,-1.0237094988305122
1782853735159952000,1.861951904296875,0.6368564725577831,-1.227283786895871,-0.9200668265916406
1782853735169937000,1.87193701171875,1.0700327855229377,-1.240967444333434,-0.8072714914083481
1782853735179922200,1.881922119140625,1.558084013491869,-1.1705970001645385,-0.654976943399012
1782853735189906000,1.891906005859375,2.004830586647987,-1.0615295994631946,-0.5806530854292213
1782853735199891200,1.90189111328125,2.4116338564723727,-0.9792145235437899,-0.4549484381817281
1782853735209875200,1.911875244140625,2.6937369799166917,-0.8682625512048602,-0.39105369283296165
1782853735219860000,1.92185986328125,2.971137040236592,-0.7568246950451284,-0.4261241294313222
1782853735229844000,1.931843994140625,3.2263316984891888,-0.743454195209965,-0.4783515986662358
1782853735239829000,1.9418291015625,3.3912662401020524,-0.8321961623717099,-0.5041007377550005
1782853735249813000,1.95181298828125,3.581878828328848,-0.9410855030924081,-0.5557412739474326
1782853735259798000,1.961798095703125,3.761377317345142,-1.0311251088492572,-0.5619551800262182
1782853735269783000,1.971782958984375,3.8150866957008835,-1.1180172103606163,-0.5983592033158988
1782853735279767000,1.98176708984375,3.797628195899725,-1.1541175014633684,-0.6063979136690497
1782853735289752000,1.991751953125,3.7481332203686235,-1.136252612818405,-0.5748690952003002
1782853735299736000,2.001736083984375,3.672328914582729,-1.0504000104226172,-0.5965753155738115
1782853735309721000,2.01172119140625,3.6182279065608975,-0.9657773882132022,-0.6265040784347802
1782853735319705000,2.021705078125,3.365906757918,-0.9381271647434681,-0.6257711610503495
1782853735329689900,2.03168994140625,2.9581553935885427,-0.9434406148511916,-0.5716485257185995
1782853735339674000,2.041674072265625,2.583605457115173,-0.9857448020953684,-0.46366753201447425
1782853735349659000,2.051658935546875,2.1580513095915315,-1.033610642054677,-0.27899704718776047
1782853735359644000,2.061643798828125,1.7321493715435266,-0.9984902288347483,-0.10232421005144715
1782853735369628000,2.0716279296875,1.3565975645512343,-0.9149909846320747,0.0655194239411503
1782853735379613000,2.081613037109375,0.8705535847514867,-0.8813075454127043,0.16065796027220786
1782853735389596000,2.091595947265625,0.36378538135290145,-0.8510714701682328,0.22093444205857812
1782853735399581000,2.101580810546875,-0.13202011400461197,-0.7711679123699665,0.3104915249954909
1782853735409565000,2.11156494140625,-0.6944032371193171,-0.6301582170281559,0.34864560682289303
1782853735419550200,2.12155029296875,-1.170041558238864,-0.43757330581508574,0.2858906060937792
1782853735429534000,2.131533935546875,-1.4566431621462106,-0.25589630371592936,0.16284472972676156
1782853735439519200,2.141519287109375,-1.7901403727412222,-0.15997903809733688,0.07192256898172199
1782853735449504300,2.151504150390625,-2.0774796432733535,-0.15028503481782973,0.1209820026397705
1782853735459488300,2.16148828125,-2.369085923600197,-0.25318375682160255,0.30610446901768446
1782853735469473000,2.17147314453125,-2.8028350680172442,-0.2792472956217825,0.4665723866105079
1782853735479457000,2.18145703125,-3.208983673325181,-0.16264401952289043,0.5143169382777065
1782853735489442000,2.191442138671875,-3.499817800235748,-0.05178425551205873,0.4220986002422869
1782853735499426000,2.201426025390625,-3.8189866257488725,-0.07284735567644238,0.24588804685547946
1782853735509411000,2.2114111328125,-3.9796155791223047,-0.0978190075866878,0.09640461074411869
1782853735519395000,2.22139501953125,-3.8600855288565157,-0.148873195258528,0.10257007457129656
1782853735529380000,2.231380126953125,-3.719564128488302,-0.2141173824548721,0.09433401501514017
1782853735539364000,2.241364013671875,-3.5378923870861527,-0.12847067789472638,0.06890475553050637
1782853735549349000,2.25134912109375,-3.373193407794833,-0.0686463968552649,0.15839228036254643
1782853735559334100,2.261334228515625,-3.3525042555093765,-0.26109569898992774,0.2979479044385254
1782853735569318100,2.271318115234375,-3.303662775450945,-0.5990519348204135,0.4052732107128948
1782853735579303000,2.281302978515625,-3.1563334486335513,-0.7226728345964103,0.39442726091928776
1782853735589287200,2.291287109375,-2.8924516260564324,-0.7114819438226521,0.41677455567531285
1782853735599272000,2.30127197265625,-2.5409523103028535,-0.6703748574085533,0.4024395947221666
1782853735609256000,2.311255859375,-2.088230754390359,-0.513244852066785,0.35381380324102935
1782853735619241000,2.321240966796875,-1.5449030448794363,-0.07076565403155982,0.271370936223492
1782853735629225000,2.331224853515625,-1.0724538751900194,0.3147502053532749,0.26196524836607277
1782853735639210000,2.3412099609375,-0.8560486740589142,0.3890808583900332,0.24228819573260843
1782853735649195000,2.351195068359375,-0.7602507970362902,0.2660502526573837,0.18025968264713882
1782853735659179000,2.361178955078125,-0.7206067689120769,0.1335452777452767,0.1748128884833306
1782853735669164300,2.371164306640625,-0.7411842775166034,-0.0925040961742401,0.22074242661781607
1782853735679148000,2.38114794921875,-0.73436466062963,-0.34107553689479825,0.23262327241711317
1782853735689133000,2.391133056640625,-0.5790940194189548,-0.4169513004817068,0.2267299035295844
1782853735699117000,2.401116943359375,-0.3022679595947265,-0.3131349521763623,0.2280476350646466
1782853735709102000,2.41110205078125,-0.002773556366562843,-0.17898937045037747,0.281370571386069
1782853735719086000,2.421086181640625,0.35250060175061226,-0.06528539598956704,0.2589091487310827
1782853735729071000,2.431071044921875,0.7772469400227069,0.10522489992901682,0.17962843553889543
1782853735739056000,2.44105615234375,1.1464596071213484,0.3559327681563794,0.09935323141664266
1782853735749040000,2.4510400390625,1.4168646939873695,0.6065272391371429,0.03423654305748641
1782853735759025200,2.461025146484375,1.587933208310604,0.6911616248495877,-0.00391132822483778
1782853735769009200,2.471009033203125,1.7494740158319473,0.5462263535618782,-0.025135427637211976
1782853735778994200,2.480994140625,1.9807932929784058,0.2802691860154271,0.011771540205925702
1782853735788978200,2.490978271484375,2.167929729527235,0.0852725374855101,0.07683408722504972
1782853735798963000,2.500962890625,2.412998715084791,0.012717442753911018,0.12978760571219025
1782853735808947200,2.510947265625,2.7147674929857253,0.01607069870457053,0.14936886982098221
1782853735818932000,2.520931884765625,3.0207787307620046,0.09555471591651439,0.1270867492556572
1782853735828916000,2.530916015625,3.254564690282941,0.22570567504838107,0.07063643816132098
1782853735838901000,2.54090087890625,3.411228247156739,0.4055570691555738,-0.005247508732043206
1782853735848886000,2.550885986328125,3.539941720831394,0.5535374072276056,-0.02688482858780771
1782853735858870000,2.5608701171875,3.6555186495572327,0.6184921099580823,-0.06006462913397699
1782853735868855000,2.57085498046875,3.7102754911392926,0.7100238539688288,-0.09947729618772863
1782853735878839000,2.580839111328125,3.605426292654872,0.8193433297351003,-0.13543978625498712
1782853735888824000,2.590823974609375,3.4034587821990248,0.8905614767745137,-0.06290485752858221
1782853735898808000,2.60080810546875,3.151509389477968,0.8676810980550944,0.1315282753670588
1782853735908793000,2.61079296875,2.8063497981399297,0.7487399535931646,0.3436197414848953
1782853735918777000,2.620777099609375,2.385969253861904,0.6312903628632426,0.4748507509384304
1782853735928761900,2.630761962890625,1.9614725064367056,0.5523299311339855,0.5825879259493202
1782853735938747100,2.6407470703125,1.5280156229645012,0.545648553673923,0.7152985795013607
1782853735948731100,2.650731201171875,1.1382646102279423,0.5893858424611389,0.7984472567006945
1782853735958716200,2.660716064453125,0.8763649013787508,0.5952025659158825,0.8770590211227536
1782853735968700200,2.6707001953125,0.611253829267621,0.5177985698483885,1.0008861109953373
1782853735978685200,2.680685302734375,0.27082886523604394,0.4921155547983944,1.0262278383269905
1782853735988669200,2.690669189453125,-0.018883564168214798,0.5180731490060687,1.0816736850865185
1782853735998654200,2.700654296875,-0.4908294605106115,0.34912528009861704,1.2884348595596848
1782853736008638200,2.71063818359375,-1.1777952411055563,-0.05217077061161399,1.4547813137970864
1782853736018623200,2.720623291015625,-1.7535189073085784,-0.4847611003823578,1.5704191789299249
1782853736028607200,2.730607177734375,-2.229914184275269,-0.7335505677677691,1.6627091939620673
1782853736038592000,2.740592041015625,-2.7396722171396015,-0.7824468467533588,1.5928341320946813
1782853736048577000,2.750576904296875,-3.359191185927391,-0.638473552365601,1.5568579788282513
1782853736058561000,2.76056103515625,-3.855487679672241,-0.4190932809464633,1.4162293186932802
1782853736068546000,2.770546142578125,-4.262817019197344,-0.2471412617869675,1.2100433137595652
1782853736078530000,2.780530029296875,-4.543270037347078,-0.232956961350888,0.8404141748145222
1782853736088515000,2.79051513671875,-4.6298622791290285,-0.2455439095929265,0.46735454996414477
1782853736098499000,2.8004990234375,-4.666240583455562,-0.13919804280996323,0.14433978961259125
1782853736108484000,2.810484130859375,-4.79890308701694,0.04059942915290594,-0.11254055670462548
1782853736118468000,2.820468017578125,-4.8205526087671515,0.053003422043472526,-0.2692382350437343
1782853736128453000,2.830453125,-4.597786640432477,-0.15467552486173808,-0.3579574058517814
1782853736138438000,2.84043798828125,-4.278519615241885,-0.3199048116374761,-0.40645427372362464
1782853736148422000,2.850421875,-3.818570446163416,-0.3367604501746595,-0.3037459231927991
1782853736158407000,2.860406982421875,-3.2067928852826353,-0.20702530530206859,-0.20536434981990603
1782853736168391000,2.870390869140625,-2.5578940927535294,0.13144435994327067,-0.34040373858045786
1782853736178376000,2.8803759765625,-1.8961837494462728,0.6165755357470363,-0.5980259527735412
1782853736188360000,2.89035986328125,-1.260712593767047,0.9734786102402955,-0.9034814563632011
1782853736198345200,2.90034521484375,-0.6896060659706592,1.0789720979776234,-1.2401521824277937
1782853736208329000,2.910328857421875,-0.324878435331583,1.1195398168180137,-1.5179887344688177
1782853736218314200,2.920314208984375,-0.12759236069023608,1.1665309197694063,-1.639965008842945
1782853736228298200,2.93029833984375,0.06281389130949974,1.1304590510435402,-1.6274549252294004
1782853736238283300,2.940283203125,0.3434522028982639,0.9411998501870781,-1.5947297365829347
1782853736248268000,2.95026806640625,0.7314549106627702,0.6888220029208809,-1.5543661620125173
1782853736258252000,2.960251953125,1.1295564031153917,0.5891781910598277,-1.4144211002275346
1782853736268237000,2.970237060546875,1.4462193832874297,0.6861533682335168,-1.231212504646927
1782853736278221000,2.980220947265625,1.7143752299219368,0.7797435060787945,-1.0334002141743899
1782853736288206000,2.9902060546875,2.077042420899868,0.7891401338469236,-0.8158313030261546
1782853736298190000,3.000190185546875,2.456196051776409,0.7489055194184183,-0.6077292353380471
1782853736308175000,3.010175048828125,2.7259341991662978,0.7644418189853429,-0.4259302873596549
1782853736318159000,3.0201591796875,2.89297886480093,0.8187541316702961,-0.29406784813478587
1782853736328144100,3.03014404296875,3.0176725814402103,0.778681429805234,-0.2555392339065671
1782853736338128100,3.040128173828125,3.1498072617352006,0.6077795772857963,-0.27700886904522776
1782853736348113200,3.050113037109375,3.280435629120469,0.3520541000921279,-0.2928837529167533
1782853736358098000,3.060097900390625,3.340731400129199,0.0593329173259437,-0.28982341549806295
1782853736368082000,3.07008203125,3.4367215848535295,-0.2148956733509898,-0.3312721549566835
1782853736378067000,3.08006689453125,3.7015251984506845,-0.34350627117305993,-0.38205877773351965
1782853736388051000,3.090051025390625,3.9496524025350808,-0.34977022693865,-0.4372452429044991
1782853736398040300,3.100040283203125,4.004309875395894,-0.33427009466364976,-0.45662009772099554
1782853736408024300,3.1100244140625,3.9720828455299135,-0.37739063979201015,-0.4381153037372976
1782853736418009300,3.12000927734375,3.8309769232720132,-0.48325149953700597,-0.3954162719566375
1782853736427993300,3.129993408203125,3.555487080487609,-0.6072266195781528,-0.3223245861303061
1782853736437978400,3.139978271484375,3.151121851465106,-0.6663861530985683,-0.24685250797346234
1782853736447962400,3.14996240234375,2.798454660975933,-0.6284020940758287,-0.21293467547632752
1782853736457947100,3.159947021484375,2.4099247144669294,-0.5691912687595934,-0.12596066783517598
1782853736467932200,3.16993212890625,1.8586083442896604,-0.5835822707489132,-0.04480725610628724
1782853736477916200,3.179916259765625,1.2801380097270012,-0.658048240603134,0.062367462716251605
1782853736487901200,3.189901123046875,0.7613175494849681,-0.7287983317393809,0.1955645115457475
1782853736497885200,3.19988525390625,0.16868424953520297,-0.7598566831521689,0.34295557848773894
1782853736507870200,3.2098701171875,-0.3526116609096527,-0.6592806319423019,0.4758478722169995
1782853736517854200,3.219854248046875,-0.6973568262279033,-0.3775501412026584,0.5957805119343101
1782853736527839200,3.229839111328125,-1.018847372686863,-0.1409658562000841,0.7841421794291585
1782853736537823200,3.2398232421875,-1.3740946427971124,-0.04745893965885043,0.8820965768985449
1782853736547808300,3.249808349609375,-1.5655740769863127,-0.020086437151953577,0.9166917972005904
1782853736557792300,3.259792236328125,-1.819177082133293,0.0015558511398732662,0.97349336941801
1782853736567777300,3.26977734375,-2.150192997306585,-0.04088884055353701,1.034742568694055
1782853736577762000,3.279761962890625,-2.4330980847835537,-0.06728694507032633,0.9707814801108091
1782853736587746000,3.28974609375,-2.6529642400234934,-0.004254442574083805,0.7666058651514351
1782853736597731000,3.29973095703125,-2.8046774810135364,0.11099179289266467,0.47098815722614523
1782853736607715000,3.309715087890625,-2.902183915519714,0.11710706090256572,0.3341476373277604
1782853736617700000,3.3197001953125,-3.08544731002748,-0.03475698673501611,0.3500018437374383
1782853736627684000,3.32968408203125,-3.3048756583720444,-0.29609285115636885,0.41487018335871395
1782853736637669000,3.339669189453125,-3.3233833749651907,-0.5810691188842058,0.509560756726563
1782853736647653000,3.349653076171875,-3.2794150539010762,-0.8053311709955334,0.5443192047663032
1782853736657638400,3.359638427734375,-3.2681238445580005,-0.8431743602428585,0.5345027441509068
1782853736667622100,3.3696220703125,-3.3136335498452185,-0.8102926658604294,0.5327789160329848
1782853736677607400,3.379607421875,-3.413343631875515,-0.8848882534436882,0.43439694080129265
1782853736687591400,3.38959130859375,-3.303397987034917,-0.9955205653741955,0.2780143197607249
1782853736697576200,3.399576171875,-3.0794261500418183,-1.0128615032102912,0.19205299629345535
1782853736707561200,3.409561279296875,-2.787570278868079,-1.0090681022766976,0.23907040272988378
1782853736717545200,3.419545166015625,-2.3232599919706582,-0.9061806323193013,0.34398141440413893
1782853736727530200,3.4295302734375,-1.830152649655938,-0.6333157312110066,0.41096338517852127
1782853736737514200,3.43951416015625,-1.3948749804973601,-0.2994813976161182,0.429523927937448
1782853736747499300,3.449499267578125,-1.0882944184005259,-0.10534304641596973,0.45994171642437576
1782853736757483300,3.459483154296875,-0.9662065003454685,-0.05592274355627596,0.39656047355569896
1782853736767468300,3.46946826171875,-0.841693985491991,-0.11783734793849289,0.3372339129053056
1782853736777452300,3.479452392578125,-0.8577981480747461,-0.24476722613200544,0.27387729302123187
1782853736787437300,3.489437255859375,-0.87604925955832,-0.3766355836410075,0.28307518334686754
1782853736797421300,3.49942138671875,-0.793604785105586,-0.42840310721397395,0.2831445222560316
1782853736807406000,3.509406005859375,-0.6760989341437816,-0.5037921832624822,0.2612969937156886
1782853736817391000,3.51939111328125,-0.6071136607229709,-0.6279466784585267,0.17704510451480746
1782853736827375000,3.529375,-0.47945174192786216,-0.6510803743518888,0.043932080706954
1782853736837360000,3.539360107421875,-0.24747896930873392,-0.5585624688480049,-0.07508768194913863
1782853736847344000,3.54934423828125,0.00035071313381195067,-0.3545195768902078,-0.15685951783731578
1782853736857329200,3.5593291015625,0.26921967647373674,-0.06898826909549534,-0.2475287997998297
1782853736867313200,3.569313232421875,0.5887485674709081,0.1554431847659871,-0.3449858422063291
1782853736877298200,3.579298095703125,0.8279846090912818,0.23317001957967876,-0.3803367031812668
1782853736887282200,3.5892822265625,0.9934095645695924,0.17326386894304305,-0.3764216486293822
1782853736897267200,3.59926708984375,1.1949684942245482,-0.043891748696565626,-0.360942303414084
1782853736907251200,3.609251220703125,1.4527169286131858,-0.31669754002876577,-0.3562782205931842
1782853736917236000,3.619236083984375,1.8371973074704409,-0.48890601816736157,-0.33582455756403506
1782853736927220200,3.62922021484375,2.235080773258209,-0.5313548745792359,-0.28503095705714077
1782853736937205200,3.639205322265625,2.5436130539447066,-0.48474707185700533,-0.2252083565181121
1782853736947190300,3.649190185546875,2.80217105115056,-0.4557227104898542,-0.17627313376162201
1782853736957174300,3.65917431640625,2.9785008470028638,-0.41672450598850846,-0.1753940859047696
1782853736967159300,3.6691591796875,3.098321404647827,-0.3882523716766387,-0.2357260972706601
1782853736977143300,3.679143310546875,3.1584143465608356,-0.3737568863995373,-0.23770400974750516
1782853736987128300,3.68912841796875,3.108567488852143,-0.35017822321765124,-0.20648648571763187
1782853736997112300,3.6991123046875,3.060036974439025,-0.3192671713210642,-0.15725775990728288
1782853737007097300,3.709097412109375,2.9360183805823326,-0.22007987105585633,-0.06523077972549944
1782853737017081300,3.719081298828125,2.7351906878113743,-0.019885653882846237,0.010682210599258541
1782853737027066000,3.729066162109375,2.3912241056501866,0.2758608680538833,0.08494571668393909
1782853737037050400,3.73905029296875,2.025911368599534,0.5526750913098454,0.13723693533744663
1782853737047035100,3.74903515625,1.6879776368618011,0.7251582947365939,0.22506149539332834
1782853737057020200,3.759020263671875,1.3465794438838958,0.7242591539397836,0.38330351709760724
1782853737067004200,3.769004150390625,1.0090677369505165,0.6467400070600211,0.533682148483023
1782853737076989200,3.7789892578125,0.7602835302621126,0.5875026590630412,0.7418549433197825
1782853737086973200,3.78897314453125,0.49314416719377036,0.5163935253560543,0.926167993010953
1782853737096958200,3.798958251953125,0.21235621800124643,0.40188393360078334,0.9783091722019016
1782853737106942200,3.808942138671875,-0.0706236882776022,0.37926381325274705,0.9217451350674033
1782853737116927200,3.81892724609375,-0.39033728819191454,0.44520007436648007,0.921775895531848
1782853737126911200,3.8289111328125,-0.7971206842720509,0.5660309780977666,0.8613993874371051
1782853737136896300,3.838896240234375,-1.1998539281785487,0.7012468194037675,0.7711070490282028
1782853737146880300,3.84888037109375,-1.625766972142458,0.8847238566622138,0.7259588705297559
1782853737156865000,3.858864990234375,-2.1548317630231377,1.0173379910372198,0.7100271419044584
1782853737166849000,3.86884912109375,-2.7196137639731166,1.1205698174528778,0.6014941403407603
1782853737176834000,3.878833984375,-3.2626772695899007,1.197776683513075,0.4114315872121602
1782853737186819300,3.8888193359375,-3.6375422633618113,1.248422582644969,0.22526253439076244
1782853737196803000,3.898802978515625,-3.736019004204869,1.2252910056434572,0.10617500372808426
1782853737206788400,3.908788330078125,-3.767838037791848,1.1597945972517132,0.03858030788283795
1782853737216772000,3.918772216796875,-3.6202626272588967,1.112071307568252,-0.0874267198447138
1782853737226757400,3.92875732421875,-3.4280659847110506,1.165450869447738,-0.20495706592695787
1782853737236741400,3.938741455078125,-3.4669963116079567,1.2344618618316947,-0.3146456490002572
1782853737246726400,3.948726318359375,-3.461012561023235,1.1603194979086517,-0.38357977675572036
1782853737256710400,3.95871044921875,-3.2740812916576862,0.8449712535969912,-0.4542180780805647
1782853737266695200,3.968695068359375,-3.01271174416244,0.35101840036883947,-0.4185423325328156
1782853737276679200,3.97867919921875,-2.69193080727756,-0.021703736155480144,-0.25275486388504503
1782853737286661000,3.9886611328125,-2.3076871597856283,-0.04919716162830591,-0.21497235531639305
1782853737296645000,3.99864501953125,-1.8661691349327563,0.2345056520976126,-0.3972913451135158
1782853737306630100,4.008630126953125,-1.352662563189864,0.5372602261655033,-0.6399864411465823
1782853737316614100,4.0186142578125,-0.9042594549983739,0.6244411545556038,-0.8149645301289856
1782853737326599200,4.02859912109375,-0.6738233904272317,0.6276458688810468,-1.0329731478687376
1782853737336583200,4.038583251953125,-0.5679208834975957,0.663607920556888,-1.2243934722818433
1782853737346568200,4.048568115234375,-0.4843459437102079,0.6376362978238612,-1.2245976896170525
1782853737356552200,4.05855224609375,-0.38909927082955836,0.4666667868956923,-1.1071492679309098
1782853737366537200,4.068537109375,-0.24032442137897014,0.2939440025594085,-1.0492729791540651
1782853737376522200,4.078522216796875,0.027221768924593923,0.22113778261095285,-1.0361803464122117
1782853737386506000,4.088506103515625,0.3148749277114868,0.25712697802204637,-1.04057507423982
1782853737396488000,4.098488037109375,0.6694798082649708,0.22664748594313858,-1.0922281045876443
1782853737406472000,4.108471923828125,1.1865069553494452,0.3418228481307626,-0.9094285281993448
1782853737416457000,4.11845703125,1.740634291294217,0.4982342568743974,-0.6862953339874744
1782853737426441000,4.12844091796875,2.080835967963934,0.539330894959718,-0.5638869518063963
1782853737436426000,4.138426025390625,2.3089584948956965,0.38356509064324196,-0.44203781094327566
1782853737446410000,4.148409912109375,2.4133459210872648,0.1555485813692212,-0.28486367419883607
1782853737456395000,4.15839501953125,2.270135720026493,-0.06714965549148619,-0.19203593556080012
1782853737466379000,4.16837890625,1.7371791824042797,-0.4006066071413457,-0.18409319639541208
1782853737476363800,4.17836376953125,1.5493337208032607,-0.7572171284288167,-0.16890033997129647
1782853737486348000,4.18834814453125,1.9616998854517935,-0.8849743242919444,-0.20493184015415608
1782853737496332800,4.198332763671875,2.2364900555342433,-0.8494188075903802,-0.24096801651213318
1782853737506317800,4.20831787109375,2.573456403544545,-0.8308138411678373,-0.2987807750660926
1782853737516301800,4.2183017578125,2.998474544495344,-0.8478641985595226,-0.37955285932719707
1782853737526286800,4.228286865234375,3.1915818721473217,-0.9119298434957861,-0.4728439411606639
1782853737536270800,4.238270751953125,3.148573336026072,-1.0534666314516217,-0.5444554348992183
1782853737546256100,4.248256103515625,2.925418660634756,-1.2630553575009107,-0.49694063686728474
1782853737556240000,4.258239990234375,2.5644606116622684,-1.4927607697099445,-0.37045660274513065
1782853737566225200,4.26822509765625,2.202098541110754,-1.6613678623557089,-0.27881776336440817
1782853737576209000,4.278208984375,1.992757287016511,-1.7486055624343453,-0.2662580319228582
1782853737586194000,4.28819384765625,1.779648204821348,-1.7232225532442331,-0.35083117070104924
1782853737596178200,4.29817822265625,1.6001456241518257,-1.4574616389222441,-0.3948958282791078
1782853737606163000,4.308162841796875,1.5444716677248478,-1.1062320800207555,-0.3737790982313454
1782853737616147000,4.31814697265625,1.3722054680496454,-0.9088887222342192,-0.3241174608964473
1782853737626132000,4.328132080078125,1.0119640429139136,-0.8829898724764585,-0.2790811818072572
1782853737636116000,4.338115966796875,0.5198071331918239,-0.9402167574338615,-0.24768517767162992
1782853737646101000,4.34810107421875,-0.0354752180069685,-1.0199619098000228,-0.26331379516450687
1782853737656086000,4.3580859375,-0.2578244222342968,-1.0995220609880982,-0.1671197949637659
1782853737666070000,4.368070068359375,-0.2936030071020126,-1.2240798032227902,-0.01667836286618258
1782853737676055000,4.378054931640625,-0.44354047059118745,-1.3430463013216853,0.09589601276800967
1782853737686039000,4.3880390625,-0.6781728178083897,-1.390134215711057,0.08931267058863304
1782853737696024000,4.398024169921875,-0.9252028743058442,-1.214492548253387,0.10693714720699936
1782853737706008000,4.408008056640625,-1.2739479229152202,-0.9512035770028829,0.175131525978446
1782853737715992800,4.417992919921875,-1.706562510344386,-0.7983704651374369,0.21404486520793287
1782853737725976800,4.427976806640625,-2.1801906606853008,-0.7494973478317261,0.19477524259788914
1782853737735961900,4.4379619140625,-2.564155491235852,-0.6745608378563076,0.13850317414728924
1782853737745945900,4.44794580078125,-2.889259552016854,-0.5498329997517168,0.06065315134534612
1782853737755931000,4.457930908203125,-3.078722385686636,-0.4190465191952884,0.003803958860225975
1782853737765915000,4.467914794921875,-3.099166623300314,-0.3521945314761251,-0.00897982712816447
1782853737775900000,4.47789990234375,-2.7696149354606865,-0.2851123882628977,0.03598097557201981
1782853737785884000,4.4878837890625,-2.485060327211022,-0.1557530179001391,0.06859196325428783
1782853737795869000,4.497868896484375,-2.49981599779427,-0.022939488495513794,0.17576931242533028
1782853737805854000,4.50785400390625,-2.5589573380708694,-0.05773351930528879,0.3007857582129538
1782853737815838000,4.517837890625,-2.5455852308005094,-0.24406024690642952,0.41367589554022993
1782853737825822700,4.52782275390625,-2.4641882195740936,-0.40000148085504766,0.5160444561900571
1782853737835806700,4.537806640625,-2.3545406808972356,-0.38989129799008365,0.6165774354431778
1782853737845792000,4.5477919921875,-2.1880179933100936,-0.33611068102903663,0.7565417133852839
1782853737855775700,4.557775634765625,-1.9012141448289155,-0.14788951798342168,0.8151455857843161
1782853737865761000,4.567760986328125,-1.5483289276748895,0.14920513062663376,0.7946721951413899
1782853737875745000,4.5777451171875,-1.290233287283778,0.3599875234398991,0.7575638960398733
1782853737885730000,4.58772998046875,-1.3138099777042864,0.4231405105106532,0.6657485858473926
1782853737895718000,4.5977177734375,-1.3518623527228832,0.39988486873805523,0.5586642121894285
1782853737905702000,4.607701904296875,-1.2155389885663985,0.3453444463856518,0.45446949555836613
1782853737915687000,4.61768701171875,-0.8706839331328868,0.2919672225937247,0.4238900137037039
1782853737925671000,4.6276708984375,-0.6452689115941525,0.21358495607860384,0.5711068200573325
1782853737935656000,4.637656005859375,-0.4519464798867702,0.10359079592116177,0.6037381198752672
1782853737945640000,4.647639892578125,0.030889059260487555,0.11405381081178784,0.5628733177844435
1782853737955625000,4.657625,0.5030950678437948,0.22255568658486008,0.5067751080634072
1782853737965609000,4.66760888671875,0.6877636529743671,0.32306612521260974,0.5034013207813725
1782853737975594000,4.677593994140625,0.7369272045940161,0.499275582620874,0.5458758596237748
1782853737985578000,4.687577880859375,0.8837959281623363,0.6113843237794936,0.5335416805664077
1782853737995563000,4.69756298828125,1.0380495012849569,0.483431020822376,0.44456670836638656
1782853738005547000,4.707547119140625,1.1445610800236463,0.21906017261929808,0.37914847977738825
1782853738015532000,4.717531982421875,1.366736096727848,0.05233049121797084,0.35957415686603633
1782853738025517000,4.72751708984375,1.70741298969388,0.04215162703096866,0.38315168753676115
1782853738035501000,4.7375009765625,2.032583685970306,0.030045009651780127,0.43153329499848186
1782853738045486000,4.747486083984375,2.2868968852132556,0.01278868135921657,0.4800651976510882
1782853738055470000,4.757469970703125,2.485890932816267,-0.04986388190872967,0.5524171710260212
1782853738065454800,4.767454833984375,2.7703128545969724,-0.10631379114426671,0.5926746914060786
1782853738075439000,4.777439208984375,2.96670227265954,-0.13726758620403706,0.5981669686794281
1782853738085423900,4.787423828125,3.0173797359734773,-0.17200294562913476,0.5625073340162634
1782853738095407900,4.797407958984375,3.038181116461754,-0.27290859411954876,0.5512814084617421
1782853738105393000,4.807392822265625,3.0457892533779143,-0.3805671509362757,0.5183620489500462
1782853738115377000,4.817376953125,2.9746856726288793,-0.4220790918242186,0.5428127091934905
1782853738125362000,4.82736181640625,2.8040169712781906,-0.43184930214509365,0.6121297353193164
1782853738135346000,4.837345947265625,2.6653800694823264,-0.43783524468690155,0.5956339430704712
1782853738145331000,4.8473310546875,2.5457752004146577,-0.3683168873026967,0.513120750763081
1782853738155315000,4.85731494140625,2.497687169072032,-0.16292546681277453,0.4711378678951412
1782853738165300000,4.867300048828125,2.319095858028531,-0.029342268209904432,0.44066451329607514
1782853738175284700,4.87728466796875,1.9510972428947686,-0.012747034174576401,0.42498562692068514
1782853738185269000,4.88726904296875,1.5427508352816104,-0.03450871106237173,0.4238627603705972
1782853738195253800,4.897253662109375,1.2256219911634922,-0.04263027739338576,0.42081338273733854
1782853738205237800,4.90723779296875,0.8570593124061823,-0.09607684009447694,0.48819637206066396
1782853738215222800,4.917222900390625,0.4106465012490749,-0.1992430539280176,0.6006069457100705
1782853738225206800,4.927206787109375,-0.01833528263568878,-0.3579557253513485,0.7850928312174975
1782853738235192000,4.937192138671875,-0.3205073806405067,-0.4800139058552682,1.0973470550365745
1782853738245175800,4.94717578125,-0.6613467706918716,-0.4237645606931299,1.2093592039529233
1782853738255161000,4.9571611328125,-1.1711223392128944,-0.16273783528618513,1.055088679695502
1782853738265145000,4.96714501953125,-1.5674690969526768,0.22747809154838322,0.6892168474573641
1782853738275130000,4.977130126953125,-1.8032050214976072,0.6421846818432212,0.2983230213612318
1782853738285114000,4.987114013671875,-2.116720351293683,0.9372686482179909,-0.059523060470027846
1782853738295099100,4.99709912109375,-2.4158850841760633,1.0348959326248615,-0.34524496806655075
1782853738305084000,5.007083984375,-2.6874855183064934,1.0848628365166484,-0.4898454179093241
1782853738315068000,5.01706787109375,-2.989332037618756,1.1406230099223553,-0.5487283629780635
1782853738325053000,5.027052978515625,-3.2685511300593615,1.1542754685040562,-0.6511916527066379
1782853738335037000,5.037036865234375,-3.4286487530350684,1.0733816575594246,-0.7896350046917796
1782853738345022000,5.04702197265625,-3.557030802798271,0.9868765826042741,-1.0417654530681668
1782853738355006000,5.057005859375,-3.667045421221852,0.9541377307586372,-1.252983753080666
1782853738364991000,5.066990966796875,-3.5752678857564923,0.8524317987360059,-1.3191716508679092
1782853738374975000,5.07697509765625,-3.4227304689019915,0.5279875901032239,-1.1964710077419876
1782853738384960000,5.0869599609375,-3.350848889517784,0.16668123914971947,-1.0240077511247248
1782853738394943500,5.096943603515625,-3.176511728787422,0.05367624327111989,-0.7839420537471771
1782853738404928800,5.1069287109375,-2.9110031817913056,0.08512132897917181,-0.6069358199380338
1782853738414912500,5.11691259765625,-2.565144502273202,0.19292742277411742,-0.6147255970314145
1782853738424897800,5.126897705078125,-2.268675584346056,0.3251302912008017,-0.7615393755421042
1782853738434882600,5.136882568359375,-2.1575386838942765,0.5296000668011606,-0.893762172511965
1782853738444866600,5.146866455078125,-2.1211077725976706,0.7280166067771613,-1.0254410718634723
1782853738454851600,5.1568515625,-2.065371272328496,0.7491361133038997,-1.1740084160432218
1782853738464835600,5.166835693359375,-1.9089011922001837,0.6115175217051059,-1.3052829723775385
1782853738474820600,5.176820556640625,-1.6686457444041967,0.4643874437868595,-1.3591503177739679
1782853738484804600,5.1868046875,-1.38726625905931,0.374841905157268,-1.3626508732408285
1782853738494789600,5.19678955078125,-1.0007990902990103,0.3028530112073757,-1.2841922535538672
1782853738504773600,5.206773681640625,-0.5963163723766803,0.2455656830333173,-1.1953702068932355
1782853738514758700,5.216758544921875,-0.19201368719637393,0.24624478787127882,-1.1235561397872864
1782853738524742700,5.22674267578125,0.28631694174706934,0.23331521847033873,-0.9954426047671586
1782853738534727700,5.236727783203125,0.792452107939124,0.1779456518174149,-0.8387653116289526
1782853738544711700,5.246711669921875,1.221371932503581,0.07824291284335777,-0.6964690836079418
1782853738554696400,5.256696533203125,1.64266023927629,0.0019456176424399018,-0.555859931891039
1782853738564681500,5.266681396484375,2.0671961496680975,-0.07091423675597179,-0.4250116381447762
1782853738574665500,5.27666552734375,2.431298341885209,-0.14023756932499817,-0.34068050969522445
1782853738584650500,5.286650390625,2.7117005066305397,-0.2903967401403002,-0.18709871662063524
1782853738594634500,5.296634521484375,2.828417253041267,-0.4772625978531316,-0.13191110067218542
1782853738604619500,5.30661962890625,2.97087985060513,-0.5981404459986835,-0.19808887892421334
1782853738614603500,5.316603515625,3.158670951670408,-0.6970447646040469,-0.23858693006187676
1782853738624588500,5.326588623046875,3.292856134754419,-0.8052624896734952,-0.22019282991103828
1782853738634572500,5.336572509765625,3.3310172308444974,-0.9543314266998321,-0.20428692984674124
1782853738644557600,5.3465576171875,3.3749247616320845,-1.1096090821731834,-0.20817871312089264
1782853738654541600,5.35654150390625,3.4031840569108724,-1.2240952199876307,-0.20451525870990006
1782853738664526300,5.3665263671875,3.319645357480645,-1.2876073226943612,-0.2268804544487968
1782853738674510600,5.376510498046875,3.088940412840247,-1.3319332250244915,-0.17506916479934007
1782853738684495600,5.38649560546875,2.8005893349170683,-1.3771933394648135,-0.08088920783475041
1782853738694480600,5.396480712890625,2.5061159747213124,-1.4023213509805499,-0.013385039817169308
1782853738704464600,5.406464599609375,2.123781375721097,-1.3864517278060315,0.008926124179549515
1782853738714449700,5.41644970703125,1.8224965819448231,-1.3091434471979737,-0.023925266396161167
1782853738724433700,5.42643359375,1.5690671797990798,-1.148026710307598,-0.0793843562297523
1782853738734418700,5.436418701171875,1.306629126289487,-0.8518599901974201,-0.17366591040529308
1782853738744402700,5.446402587890625,1.0641904892355203,-0.5931589312590658,-0.2081503820755519
1782853738754387700,5.4563876953125,0.7823042234122752,-0.43092323680873956,-0.1511877375449054
1782853738764371700,5.466371826171875,0.4301835608899593,-0.42052057380322366,-0.04870404434911906
1782853738774356500,5.4763564453125,0.08395370997190475,-0.5131642245786264,0.01839097661199048
1782853738784340700,5.4863408203125,-0.1789870323628187,-0.5701702698595822,0.0905253799797967
1782853738794325500,5.496325439453125,-0.4920470196068287,-0.7194780571430921,0.22654090202981605
1782853738804309500,5.5063095703125,-0.6894014833092689,-0.9847931273937225,0.35565190538838504
1782853738814294500,5.51629443359375,-0.8714449806332588,-1.2123889270376413,0.5133870370164513
1782853738824279600,5.526279541015625,-1.1071563552588224,-1.2946028806701302,0.7246009531147778
1782853738834263600,5.536263671875,-1.4292805234462023,-1.1344096153002232,0.8377456862576306
1782853738844248600,5.54624853515625,-1.701793980768323,-0.7319302730895578,0.7938254421189427
1782853738854232600,5.556232666015625,-1.9349878196150063,-0.3125336252823472,0.6233933260031044
1782853738864217600,5.566217529296875,-2.331682952401042,-0.046817646080628036,0.43003041615486143
1782853738874201600,5.57620166015625,-2.8089363075017926,0.11586129862517118,0.28866250022621825
1782853738884186600,5.5861865234375,-3.1242887895971534,0.1791220569193363,0.3094223613940179
1782853738894170600,5.596170654296875,-3.3141800778120754,0.12050488664731383,0.45401656415909525
1782853738904155400,5.6061552734375,-3.3930186367273327,0.03928564314059913,0.4903993254650384
1782853738914139400,5.616139404296875,-3.391055812221765,0.0689151307940483,0.4507242080828175
1782853738924124400,5.62612451171875,-3.3771967982172963,0.08169760160818695,0.541956201962009
1782853738934108400,5.6361083984375,-3.329643604403734,-0.03482902905791998,0.681404712401703
1782853738944093400,5.646093505859375,-3.1960072873741385,-0.22447832521051167,0.8018795692369342
1782853738954078700,5.65607861328125,-2.9692396821826694,-0.33454876547455786,0.9337043067999183
1782853738964062700,5.666062744140625,-2.731202494958043,-0.335336554851383,1.1473832978375256
1782853738974047700,5.6760478515625,-2.5639678597092628,-0.3334501565828919,1.3311108027257024
1782853738984031700,5.68603173828125,-2.306169740960002,-0.35341676674745975,1.3444776492990553
1782853738994016800,5.696016845703125,-2.2081793223291633,-0.28517602808363735,1.2214341840848326
1782853739004000800,5.706000732421875,-2.115101810181141,-0.2021905055567622,1.0736962034013122
1782853739013985500,5.715985595703125,-1.8682915339142083,-0.1783098637536168,0.9685103203084319
1782853739023969500,5.725969482421875,-1.5978654042601586,-0.17231807599291205,0.8998407617732882
1782853739033954600,5.73595458984375,-1.3631494704127312,-0.15665559276305138,0.8353449087262154
1782853739043938600,5.7459384765625,-1.089745201730728,-0.10615136712417006,0.7989464383944869
1782853739053923600,5.755923583984375,-0.7815618806123733,-0.09470339631680398,0.7838968263659626
1782853739063908600,5.76590869140625,-0.5713759923875331,-0.12210833978857845,0.7452330414507538
1782853739073892600,5.775892578125,-0.25013912842869757,-0.15318258289024234,0.6826630418997257
1782853739083877600,5.785877685546875,0.18336334775090216,-0.17192319492381064,0.6283259600996971
1782853739093861600,5.795861572265625,0.6331809989154339,-0.17991496086269615,0.6007960750740021
1782853739103846700,5.8058466796875,1.0187374825716018,-0.16902751001492142,0.537072302377969
1782853739113830700,5.81583056640625,1.4155442590385674,-0.1940057377964258,0.4816931641791016
1782853739123815400,5.8258154296875,1.8358213429421186,-0.23277221590112893,0.44734855763725934
1782853739133799700,5.835799560546875,2.2697639641046523,-0.24964096964821217,0.41366369364578276
1782853739143784400,5.845784423828125,2.664111072459817,-0.27288824545126406,0.4278425507217645
1782853739153768400,5.8557685546875,2.951892241540551,-0.2461610916431993,0.4068816688228398
1782853739163753500,5.86575341796875,3.256007874828577,-0.24717209531664847,0.41544447611533103
1782853739173737500,5.875737548828125,3.4730075347214937,-0.3537851982010528,0.4722152513356879
1782853739183722500,5.885722412109375,3.5955513798505065,-0.4886163145057857,0.5070742371404543
1782853739193707500,5.89570751953125,3.7602760781049724,-0.5175147114057094,0.6101677145313471
1782853739203691500,5.90569140625,3.8708062448352574,-0.5044901389313862,0.5981725216373801
1782853739213676800,5.9156767578125,3.968624814030528,-0.47197114038150756,0.5271341150790453
1782853739223660500,5.92566064453125,4.054232720950246,-0.45004682027790693,0.4894003044903278
1782853739233645600,5.9356455078125,4.045911467328668,-0.4894278866169974,0.44186135839782653
1782853739243629600,5.945629638671875,3.894458923101425,-0.5503505208197981,0.4544439592583105
1782853739253614600,5.955614501953125,3.705093120065331,-0.5203857367973774,0.43168797410354015
1782853739263598600,5.9655986328125,3.5724165879786014,-0.41642004314921793,0.41137196597941217
1782853739273583600,5.97558349609375,3.2629461496591565,-0.2718299320373684,0.4149829595508054
1782853739283567600,5.985567626953125,2.7941186775982376,-0.11816636069715022,0.4512157544594258
1782853739293552600,5.995552734375,2.296370816001296,-0.01085603279620409,0.5102583836019039
1782853739303537700,6.00553759765625,1.6846850250571965,0.0348352396029979,0.6002469167586416
1782853739313521700,6.015521728515625,1.06613051738739,-0.01962422646768391,0.7464930514492094
1782853739323506700,6.025506591796875,0.5130021293520927,-0.05862754553556442,0.7528150210123509
1782853739333490700,6.03549072265625,0.08470598964393139,0.09751585992164909,0.6885953545581549
1782853739343475500,6.045475341796875,-0.17158289358615875,0.3418105001058429,0.5970278816469013
1782853739353459700,6.055459716796875,-0.4138333145916462,0.6192939278602599,0.41495362385846674
1782853739363444500,6.065444580078125,-0.7735749735116958,0.9164994164336472,0.1799259206481278
1782853739373428500,6.075428466796875,-1.135510927605629,1.1215716149065642,-0.09032996700555086
1782853739383413500,6.08541357421875,-1.6953291686683891,1.2360980847314,-0.2891336066029966
1782853739393398000,6.09539794921875,-2.5667624588638542,1.3263485567599533,-0.37142858958244324
1782853739403383000,6.105383056640625,-3.499914830869436,1.3439958571314812,-0.21826544204503295
1782853739413368000,6.1153681640625,-4.432058318093419,1.3224506725385785,-0.1108056957360357
1782853739423352000,6.12535205078125,-5.1053936327427625,1.301706867456436,-0.2093809285175055
1782853739433337000,6.135337158203125,-5.477417850130796,1.3923479462377726,-0.4252808835402131
1782853739443321000,6.145321044921875,-5.467871438628435,1.6366713741250336,-0.7917306617967784
1782853739453305900,6.155305908203125,-5.111993469399214,1.9814359747961163,-1.1013087252091616
1782853739463289900,6.165289794921875,-4.892034375178814,2.2685864447578785,-1.1764721027430147
1782853739473275000,6.17527490234375,-4.691267472684383,2.251530972799659,-0.8522633833665401
1782853739483259000,6.1852587890625,-4.538470528110862,1.7445289606451988,-0.18683380034044383
1782853739493244000,6.195243896484375,-4.710120641714334,0.9818266788035631,0.3247267519012093
1782853739503228000,6.205227783203125,-4.6363796981990335,0.36594708943143484,0.516256199244596
1782853739513213000,6.215212890625,-4.289413934221863,-0.012563183773960918,0.5543002813588828
1782853739523198000,6.225197998046875,-4.094122248268127,-0.1335262990501709,0.39703766261339185
1782853739533182000,6.235181884765625,-3.832099205300212,-0.017482975513645214,0.12303111718930303
1782853739543167000,6.2451669921875,-3.3958144049257037,0.2965851829842664,-0.22946942976238205
1782853739553151000,6.25515087890625,-2.7907909944802523,0.6060745999988169,-0.5279046245275065
1782853739563135700,6.2651357421875,-2.2286241444647312,0.7150693007901311,-0.7286917295597494
1782853739573120000,6.2751201171875,-1.801566022118926,0.6326939460508525,-0.8841524134498089
1782853739583104800,6.285104736328125,-1.4106921428322792,0.4446864988211542,-0.9156497408017515
1782853739593088800,6.2950888671875,-0.9983727399349213,0.16760719488821924,-0.7727223752703517
1782853739603073800,6.30507373046875,-0.7385621123194694,-0.2623260810350999,-0.561651155578345
1782853739613057800,6.315057861328125,-0.48884442417323587,-0.6725837656296789,-0.40590230239666997
1782853739623043000,6.32504296875,-0.057117140972614285,-0.9092706342238932,-0.27095351452901956
1782853739633028000,6.335028076171875,0.3786275611758232,-0.9853977422233671,-0.18842421133704482
1782853739643012000,6.34501220703125,0.8867629612743854,-0.9509634115714579,-0.13395097246933726
1782853739652997000,6.3549970703125,1.4330641336381436,-0.9185474350046365,-0.10167326272889039
1782853739662981000,6.364981201171875,1.9921277569413185,-0.9200637578517198,-0.04479262022615876
1782853739672966000,6.3749658203125,2.4971084924012423,-0.9224294640697538,0.011713725054485258
1782853739682950100,6.3849501953125,2.9233494531452653,-0.8996019845813512,0.04236442496485542
1782853739692935000,6.394934814453125,3.350755950537324,-0.8898502597652376,0.06411063028888311
1782853739702919000,6.4049189453125,3.603168869116902,-0.9632279959913342,0.07193792181448079
1782853739712904000,6.414904052734375,3.675648414394259,-1.1741324808143079,0.057005533824302256
1782853739722888000,6.424887939453125,3.751146430709958,-1.3979969119101763,0.08872834049519152
1782853739732873000,6.434873046875,3.825932499364018,-1.6230004300385712,0.16374865629654375
1782853739742858000,6.44485791015625,3.8381180271983144,-1.8620104078181088,0.2213550055582076
1782853739752842000,6.454842041015625,3.75531991700232,-2.0403810618482527,0.1906826029893942
1782853739762827000,6.464826904296875,3.719164900037646,-2.184986662790179,0.13187301541781052
1782853739772811000,6.47481103515625,3.6657185565322634,-2.3096517378568646,0.07498243147637694
1782853739782796000,6.484796142578125,3.5004975991934537,-2.292239707545936,0.03408036611508578
1782853739792780000,6.494780029296875,3.3341070135533806,-2.1973174443140624,0.03249411983694881
1782853739802764800,6.504764892578125,3.190432117590308,-2.0684493645995854,0.04838434740807861
1782853739812748800,6.514748779296875,2.920110617354512,-1.9485387905836105,0.05999846856258809
1782853739822733800,6.52473388671875,2.5351538531571625,-1.8717760150291025,0.055090311320126054
1782853739832717800,6.5347177734375,2.1207482916355134,-1.7455229401186108,0.09811145119462161
1782853739842702800,6.544702880859375,1.6651695927262304,-1.5309138286240398,0.16813337418679147
1782853739852688000,6.55468798828125,1.2073252869725226,-1.3212731531918047,0.25084386089826
1782853739862672000,6.564671875,0.7926122669368982,-1.173669174151495,0.18083129025632513
1782853739872657200,6.5746572265625,0.485112251907587,-0.9496643847368657,0.00362171589480713
1782853739882641000,6.584640869140625,0.15070961690545082,-0.6390750984553247,-0.18812716461922974
1782853739892626000,6.5946259765625,-0.3491612281948328,-0.3859994781833142,-0.2817870432324707
1782853739902610200,6.604610107421875,-0.9068506405353546,-0.3633355186935514,-0.11888756024432368
1782853739912595000,6.614594970703125,-1.4544891989827156,-0.5343140897110105,0.12953096406999975
1782853739922579000,6.624578857421875,-1.9726760374963281,-0.6443480704221874,0.20923348287083207
1782853739932564000,6.63456396484375,-2.2979303204029797,-0.5128776992548257,0.22156437399256973
1782853739942549000,6.644549072265625,-2.640999661463499,-0.18635500384755432,0.20811969467634334
1782853739952533000,6.654532958984375,-2.9393437256127593,0.2641783213056624,0.028747626785002648
1782853739962518000,6.66451806640625,-3.0342145509183407,0.6612717326942831,-0.19144299290264025
1782853739972502000,6.674501953125,-3.002325959226489,0.9163396227620542,-0.3257682237781584
1782853739982487000,6.684487060546875,-3.06530468570888,1.0083801930777727,-0.26276922169271855
1782853739992471000,6.694470947265625,-3.1690994067043063,1.011516006885469,-0.20678806248009204
1782853740002456000,6.7044560546875,-3.2704701154232025,1.0250072835560888,-0.2468564169635996
1782853740012440000,6.714440185546875,-3.3945746339976783,1.0316555624641477,-0.2937898349110037
1782853740022424800,6.7244248046875,-3.551208380255103,0.9996695748124271,-0.3523343418056145
1782853740032408800,6.734408935546875,-3.6338270422309633,0.8794212932746857,-0.3070579338176176
1782853740042393900,6.744393798828125,-3.793727681329846,0.7188575871571898,-0.1667766988808289
1782853740052379000,6.75437890625,-3.878250131100416,0.5585974670961499,-0.04394077547006309
1782853740062363000,6.76436279296875,-3.5961820789694783,0.5975470832154155,0.08457962331790476
1782853740072348000,6.774347900390625,-3.249323282498121,0.7966543819345533,0.1605062768418342
1782853740082332000,6.784331787109375,-2.8673581013321874,1.14127197535038,-0.07650993330460042
1782853740092317000,6.79431689453125,-2.2626240292221307,1.438482943816483,-0.2142833136063069
1782853740102301000,6.804301025390625,-2.0680413683205843,1.508181918464601,-0.24884101490955798
1782853740112286000,6.814285888671875,-1.7224083142518996,1.4402651510581372,-0.23507833741903303
1782853740122270000,6.82427001953125,-1.1627747821062802,1.2464052514731883,-0.07459423587638885
1782853740132254700,6.834254638671875,-0.8536322605669497,1.0467035670574754,0.13864946901649236
1782853740142239000,6.844239013671875,-0.6072679745018482,0.8952423280671238,0.2628536485731602
1782853740152224000,6.85422412109375,-0.17427403236627578,0.7698040036056191,0.2850499905511737
1782853740162209000,6.864208984375,0.24572657268345355,0.7084981057062745,0.1530209991203621
1782853740172193000,6.874193115234375,0.6560375583678484,0.7260914839334786,-0.04157152558807283
1782853740182178000,6.884177978515625,1.0263456194877625,0.7567633202467113,-0.19179829088002442
1782853740192162000,6.894162109375,1.3132348081648348,0.7358085758276284,-0.22412688142433762
1782853740202147000,6.90414697265625,1.506393573743105,0.6700601654361933,-0.27019034813679754
1782853740212131000,6.914131103515625,1.70215346173048,0.592672389851138,-0.3081353903234005
1782853740222116000,6.9241162109375,1.9523200626879929,0.43914632728546854,-0.3046047319792211
1782853740232100000,6.93410009765625,2.2159826895564794,0.22561061717607078,-0.2841196143658832
1782853740242084900,6.9440849609375,2.4205641819030044,-0.02235226319208741,-0.19617829606253653
1782853740252070000,6.95406982421875,2.517914549064636,-0.1473961815085262,-0.0648692529367283
1782853740262054000,6.964053955078125,2.6567484347373247,-0.10738251635432243,0.13144899958577005
1782853740272039000,6.974038818359375,2.9304455488860603,-0.05529840111285448,0.2826603189356625
1782853740282023000,6.98402294921875,3.128432465273142,-0.07372728031612932,0.30380032026115805
1782853740292008000,6.994008056640625,3.213841634750366,-0.1516978972904384,0.2743243426689878
1782853740301992000,7.003991943359375,3.1801866179078817,-0.3083661303393543,0.2631584036733955
1782853740311977000,7.01397705078125,3.1043133385390043,-0.527646959972009,0.23640490984767673
1782853740321961000,7.0239609375,3.0846552828669545,-0.679933178544417,0.1318563017450273
1782853740331946000,7.033946044921875,3.2073750690847636,-0.7241269789274781,0.013502674847468733
1782853740341930800,7.0439306640625,3.3470933363765476,-0.66667651434727,-0.05308861610889434
1782853740351915000,7.0539150390625,3.4039614710241555,-0.6041187166906893,-0.06927114115748555
1782853740361899800,7.063899658203125,3.2674832085669037,-0.5709688728913664,-0.019378069686889647
1782853740371883800,7.0738837890625,3.015205899065733,-0.5438932344391941,0.13729034602511672
1782853740381868800,7.083868896484375,2.6874820111751556,-0.5968363045975565,0.22543555287010966
1782853740391852800,7.093852783203125,2.2882640819132325,-0.7059782318398357,0.2756733826577663
1782853740401841400,7.10384130859375,1.912539256441593,-0.7343650990210473,0.25246921534407885
1782853740411825400,7.113825439453125,1.5572703590214252,-0.7071326625719666,0.31137758711501956
1782853740421810400,7.123810546875,1.0737357316941023,-0.6301774331852793,0.39862339743487535
1782853740431794400,7.13379443359375,0.605462970906496,-0.4497049845702946,0.4261768825318664
1782853740441779500,7.143779541015625,0.3688227909982204,-0.20628844239488242,0.3979751261265948
1782853740451764200,7.15376416015625,0.16383096428513527,0.0731634358882904,0.29308965075239535
1782853740461748500,7.16374853515625,-0.1559165378987789,0.2143913770906627,0.37474553211070594
1782853740471733200,7.173733154296875,-0.6670382603317498,0.26110563586205243,0.48163865751288826
1782853740481717200,7.18371728515625,-1.2193828045129775,0.232073894906044,0.40226602825354785
1782853740491702300,7.193702392578125,-1.6894383570641278,0.18350363300442696,0.20513795718550681
1782853740501686300,7.203686279296875,-2.1716998957157134,0.21748379014804958,-0.0495339558346197
1782853740511671300,7.21367138671875,-2.725125805392861,0.31895825150236484,-0.42312502068057656
1782853740521655300,7.2236552734375,-3.11748787741065,0.4744557602714747,-0.863296818556264
1782853740531640300,7.233640380859375,-3.3374247597992417,0.7018585946265608,-1.234158348840475
1782853740541625300,7.243625244140625,-3.5193420003950595,0.8544411657970398,-1.3831246292099355
1782853740551609300,7.253609375,-3.670216452473402,0.8546561237219721,-1.3734407089330256
1782853740561594400,7.263594482421875,-3.821013163140416,0.8947646275527775,-1.4249255431070924
1782853740571578400,7.273578369140625,-4.022155328688025,1.0112229422230272,-1.401625477670878
1782853740581563100,7.283563232421875,-4.398982562443614,1.0332950732994823,-1.1241093897558747
1782853740591547100,7.293547119140625,-4.47670410002768,0.9974527024805545,-0.7493357275292277
1782853740601532200,7.3035322265625,-4.333451813390851,0.8911606117114425,-0.47033714597150683
1782853740611516200,7.31351611328125,-4.451505945885181,0.8765496833611279,-0.34120851562470195
1782853740621501200,7.323501220703125,-4.361887049758434,0.8984051760122179,-0.4079990554802119
1782853740631486500,7.333486572265625,-4.094269547784328,0.8486376671500504,-0.5639955267474055
1782853740641470500,7.343470458984375,-3.833507903054356,0.7530792979717255,-0.8532960143499075
1782853740651455500,7.35345556640625,-3.532946162855625,0.7760875408545136,-1.1813888816833495
1782853740661439500,7.363439453125,-2.868175847455859,0.8902226732742041,-1.6089778960354626
1782853740671424500,7.373424560546875,-2.027805804044008,1.0179070961620658,-2.004775495459884
1782853740681408500,7.383408447265625,-1.2816840701252221,1.0388991038516162,-2.0947847060784697
1782853740691393300,7.393393310546875,-0.6383370665043592,0.9367613562829792,-1.9634275860272348
1782853740701377300,7.403377197265625,-0.05753273603618145,0.8116692879758775,-1.7627780263021586
1782853740711362300,7.4133623046875,0.9778957690954208,0.6765265119060874,-1.5036073040254414
1782853740721346300,7.42334619140625,1.0211264235347508,0.3639478784382343,-1.2761251208238302
1782853740731331300,7.433331298828125,0.07206511925756931,-0.286646064103581,-0.8040719647146761
1782853740741316400,7.44331640625,0.5904062715500593,-0.839210425047949,-0.5060919115722179
1782853740751300400,7.45330029296875,0.9043009560525417,-1.0920243987090885,-0.5984707739315926
1782853740761285400,7.463285400390625,1.5132494309872389,-0.886842529316619,-0.861267285490036
1782853740771269400,7.473269287109375,2.162339946696162,-0.5123802711267024,-1.0483962693847715
