time,seconds_elapsed,z,y,x
1782853743038357800,0.074357666015625,1.909232616111636,-0.8143881915457546,-0.5444084174197167
1782853743048342800,0.0843427734375,2.220634899276495,-0.8418652504056692,-0.19822317282836882
1782853743058327800,0.094327880859375,2.544718384838104,-0.8664546980652957,-0.03413074459545314
1782853743068311800,0.104311767578125,2.9398054979056116,-0.9154903855215758,-0.031215332072786987
1782853743078296800,0.114296875,3.233147808244824,-0.9696807523272931,-0.12500048103351144
1782853743088280800,0.12428076171875,3.3706893160194156,-1.0619349653936923,-0.19867851538043468
1782853743098265900,0.134265869140625,3.4233518156707285,-1.1900905129246413,-0.17206958112455903
1782853743108249900,0.144249755859375,3.501198440939188,-1.2953469770357011,-0.18584705432541668
1782853743118235000,0.15423486328125,3.5716193001210685,-1.3038266360893844,-0.2165261240970343
1782853743128220000,0.164219970703125,3.515569496119022,-1.2680986123651266,-0.2254519925482571
1782853743138204000,0.174203857421875,3.3312861109137533,-1.2701811177276074,-0.24374562799930571
1782853743148189000,0.18418896484375,3.041885816198587,-1.2877118059821426,-0.25491364935413
1782853743158173000,0.1941728515625,2.748390361124277,-1.2671648386463523,-0.201272367798537
1782853743168157700,0.20415771484375,2.410812603217363,-1.217962708581984,-0.12362353012450039
1782853743178142000,0.214141845703125,2.099149623289704,-1.134409542234987,-0.0345740313835442
1782853743188126700,0.224126708984375,1.7468641255944966,-0.9555609684947878,-0.017616759102791545
1782853743198110700,0.23411083984375,1.3137240529865026,-0.7228484834242612,-0.02247040967904031
1782853743208095700,0.244095703125,0.8816454721301794,-0.4363320005171001,0.013671345945261417
1782853743218080800,0.254080810546875,0.48225627795457837,-0.13673771711103616,0.03636577363852411
1782853743228064800,0.264064697265625,0.1614320864498615,0.04129457181021571,-0.010148834374919534
1782853743238049800,0.2740498046875,0.05146890595257282,0.1881013360582292,-0.058866651521064337
1782853743248033800,0.28403369140625,-0.07994798146188259,0.32746362951919433,0.015466997190378605
1782853743258018800,0.294018798828125,-0.32479835583269595,0.40428113093562423,0.2028161631744355
1782853743268002800,0.3040029296875,-0.4848889645457268,0.40842765615582466,0.46415765361897643
1782853743277987800,0.31398779296875,-0.6677268271178006,0.3473082938045263,0.8002742529321462
1782853743287972900,0.323972900390625,-0.924423706626892,0.2870607458516955,1.00964422166422
1782853743297956600,0.33395654296875,-0.9803618669480085,0.27695100137814876,1.0968830907866358
1782853743307942000,0.34394189453125,-1.0743126547992228,0.3514914247080683,1.1080397870298475
1782853743317926000,0.35392578125,-1.3063479712605475,0.4963213359251618,0.9346987246647477
1782853743327911000,0.363910888671875,-1.6345897455453873,0.6951531787037849,0.5987326397381723
1782853743337895000,0.37389501953125,-1.856732613545656,0.7703283928059041,0.25232114864289756
1782853743347880000,0.3838798828125,-1.722346354931593,0.6454664799928664,0.059792789922654625
1782853743357865000,0.393864990234375,-1.6259920130699872,0.45039588944390413,-0.021354045934975144
1782853743367849000,0.403848876953125,-1.6875129419595003,0.2517467828210443,-0.032242227435112
1782853743377833700,0.413833740234375,-1.8069459615916013,0.13694186138100922,0.10346329708397388
1782853743387818000,0.42381787109375,-2.0112235025554894,0.1736996665444225,0.29853081889301536
1782853743397802800,0.433802734375,-2.1710282800644634,0.18070260410904884,0.5291605063401162
1782853743407787000,0.443787109375,-2.3778964220434426,0.16112426260970533,0.6250555601269007
1782853743417772000,0.45377197265625,-2.647689514490962,0.2428761516883969,0.5614094557769597
1782853743427757000,0.463757080078125,-2.7176673060804606,0.5020650672089308,0.3174653825961053
1782853743437741000,0.473740966796875,-2.3266835366785523,0.6644274202462286,0.23686069079115984
1782853743447726000,0.48372607421875,-1.973463388481736,0.8285198119465261,0.2290278052084148
1782853743457710000,0.4937099609375,-1.7033979088336229,1.1063474500287322,0.2283805933460593
1782853743467695000,0.503695068359375,-1.404899530905485,1.2786695446096359,0.3478790794298053
1782853743477679000,0.51367919921875,-1.294205698046088,1.240055297924578,0.43713805620297785
1782853743487663900,0.523663818359375,-1.1611895587414502,1.0717377628099172,0.44749943735003467
1782853743497649000,0.53364892578125,-1.0269687198221682,0.8879535592984408,0.39447950256317854
1782853743507633000,0.5436328125,-0.8621259481459855,0.6996332467272878,0.2595842715136707
1782853743517618000,0.553617919921875,-0.5966425355911255,0.5707710852969438,0.09972133407667279
1782853743527602000,0.563601806640625,-0.40142508391737936,0.4716439907863736,-0.033640549925714726
1782853743537587000,0.5735869140625,-0.1753226646363735,0.3956283803373575,-0.17537293351888655
1782853743547571000,0.583571044921875,0.18762158971726894,0.3498924650788307,-0.3294293035689741
1782853743557556000,0.593555908203125,0.6139063896030187,0.26765345007032154,-0.44623321680650113
1782853743567541000,0.603541015625,1.093294418644905,0.21970117393657565,-0.4468890503667295
1782853743577525000,0.61352490234375,1.4783797776579857,0.22041392531581222,-0.36044447342716157
1782853743587510000,0.623510009765625,1.672367979797721,0.13940116416662932,-0.2782650065861642
1782853743597493800,0.63349365234375,1.8469126457989216,0.003046162762865424,-0.27900961440838873
1782853743607479000,0.64347900390625,2.086669496423006,-0.09132226597853005,-0.33055618870705367
1782853743617462800,0.653462890625,2.3263778317302464,-0.1622319315906614,-0.3439879902753979
1782853743627448000,0.663447998046875,2.480092475670576,-0.24455687131695447,-0.29285489214845
1782853743637433000,0.67343310546875,2.5283015030443665,-0.3749611476227641,-0.21592940031290053
1782853743647417000,0.6834169921875,2.5394232010394333,-0.5074244753502309,-0.17490502374619243
1782853743657402000,0.693402099609375,2.51701204726696,-0.5557988493535667,-0.1861873921956867
1782853743667386000,0.70338623046875,2.6151538570672272,-0.5518775842566043,-0.17002397370636463
1782853743677371100,0.71337109375,2.663437118721008,-0.5870148024808615,-0.15287687794193625
1782853743687355100,0.723355224609375,2.62337281935811,-0.5838535985035821,-0.14733385686203837
1782853743697340000,0.73333984375,2.6554987269371746,-0.5579574156269431,-0.13160605331100522
1782853743707324000,0.743323974609375,2.64607038885653,-0.6049039853168651,-0.17627397401183842
1782853743717309000,0.753308837890625,2.5209540628910063,-0.664849371985346,-0.21851386384814978
1782853743727294000,0.7632939453125,2.3227894518494603,-0.6881934226937592,-0.23362916152402757
1782853743737278000,0.77327783203125,2.226259168899059,-0.6562018090188503,-0.21707367497719823
1782853743747263000,0.783262939453125,2.078478006660938,-0.6240032015297562,-0.14499357734620572
1782853743757247000,0.7932470703125,1.813912293472886,-0.5823111548345535,-0.055363283042609686
1782853743767232000,0.80323193359375,1.5955577118396758,-0.4475883577425033,-0.002405380641296506
1782853743777216000,0.813216064453125,1.3881050479710102,-0.3398633115608245,0.07266345047689973
1782853743787201000,0.823200927734375,1.0947411103218794,-0.30695100284442306,0.1220168986454606
1782853743797185800,0.833185791015625,0.8691834654420614,-0.33193127645254134,0.1417969732619822
1782853743807169800,0.843169677734375,0.6504705718904733,-0.3495340070299804,0.1512299875177443
1782853743817154800,0.85315478515625,0.505177719336748,-0.38678251831978555,0.23423180359229445
1782853743827138800,0.863138916015625,0.27513971417248245,-0.4841194414779544,0.40796581079773603
1782853743837124000,0.8731240234375,-0.1535199981510639,-0.5883218664914369,0.5449801528930663
1782853743847107800,0.88310791015625,-0.47145080630183217,-0.6044361851420254,0.6022908436764032
1782853743857093000,0.893093017578125,-0.763298494169116,-0.4065406003002077,0.5604011920498684
1782853743867078100,0.903078125,-1.1698135947018862,-0.03936009661629796,0.4444051611291244
1782853743877062100,0.913062255859375,-1.4888018029510974,0.29855946046561,0.29202611317411065
1782853743887047200,0.923047119140625,-1.8771306739300488,0.6170639037858694,0.11884875347074121
1782853743897031200,0.93303125,-2.4204168823868035,0.9639009268168359,-0.12093922294396907
1782853743907016000,0.943015869140625,-3.021240503054857,1.2156222098704428,-0.4360021840408444
1782853743917000000,0.953,-3.4876369485765695,1.1626068051282317,-0.6930475847266614
1782853743926985000,0.96298486328125,-3.7252883513540027,0.9247820916105062,-0.8644828134704381
1782853743936970000,0.972969970703125,-3.8025399333387613,0.7119049915403127,-0.9207242675870656
1782853743946954000,0.9829541015625,-3.8500311678320167,0.7259476184833794,-0.9519484770860522
1782853743956939000,0.99293896484375,-3.82827877022922,0.8341863863408565,-0.9887167305782437
1782853743966923000,1.002923095703125,-3.858237855163216,0.8725011386226862,-0.8961529401060193
1782853743976908000,1.012907958984375,-3.795923145547509,0.6395998529817909,-0.7780576718837022
1782853743986892000,1.02289208984375,-3.6447277909517286,0.3121521516840905,-0.6202130885317921
1782853743996877000,1.032876953125,-3.536204872390628,0.10643431225139648,-0.3834965189190581
1782853744006861800,1.04286181640625,-3.183362325334549,0.0647032121874392,-0.21294366250038146
1782853744016845800,1.052845703125,-2.818946829384565,0.13039704284742473,-0.24277539472766219
1782853744026830800,1.062830810546875,-2.516215343931317,0.19914481771793216,-0.3066814651880413
1782853744036814800,1.07281494140625,-2.1950363476395607,0.33009266284853217,-0.45940355442706493
1782853744046800000,1.0827998046875,-1.8900076911598442,0.5715585458802059,-0.7128503826316446
1782853744056784000,1.092783935546875,-1.5922463953346013,0.8077724266678095,-0.9307494755823165
1782853744066769000,1.102768798828125,-1.3008867832452058,0.8152917893219739,-1.055082834476605
1782853744076754200,1.112754150390625,-1.0350222624182701,0.5677166661623865,-1.1543722799420355
1782853744086738000,1.122738037109375,-0.6559165623366833,0.2281412864311598,-1.1387436989817767
1782853744096723200,1.13272314453125,-0.23717794004678724,-0.04289787882100791,-0.9897553529109805
1782853744106707200,1.142707275390625,0.15535715045034884,-0.13978864738056435,-0.8014039876144379
1782853744116692000,1.15269189453125,0.534719455641508,-0.11344446500809863,-0.5881789508894085
1782853744126676000,1.162676025390625,0.90736268171072,-0.09370487766559235,-0.43197263626381754
1782853744136661000,1.172660888671875,1.3054863859951495,-0.09563300531711429,-0.2937898714436218
1782853744146645000,1.18264501953125,1.5959113475829363,-0.10878343266081064,-0.18008008829653263
1782853744156630000,1.192630126953125,1.9421289235413073,-0.11489419802553019,-0.0872530163787771
1782853744166615000,1.202614990234375,2.330664130747318,-0.11874677266729995,0.03937557274664286
1782853744176599000,1.21259912109375,2.6026620397627354,-0.09337490592570975,0.06462895050798542
1782853744186584000,1.222583984375,2.797712318176031,-0.13010191409206018,0.08790403676657006
1782853744196568000,1.232568115234375,3.015654811877012,-0.16326160343196242,0.08246792839355767
1782853744206553000,1.242552978515625,3.183497934412956,-0.36193368907161055,0.13302333623040466
1782853744216537000,1.252537109375,3.280398219719529,-0.7007162927236408,0.09040811027567833
1782853744226521900,1.26252197265625,3.300028802862763,-0.9973671430889517,0.017754048681631683
1782853744236507000,1.2725068359375,3.3650019180327653,-1.2140483116172254,0.05357055440694093
1782853744246491000,1.282490966796875,3.3986855764478445,-1.323353320466727,0.01691321394331753
1782853744256476000,1.292475830078125,3.2421775023967028,-1.4200468311548233,-0.05865673509743064
1782853744266460000,1.3024599609375,3.0169033506333824,-1.486893777372688,-0.21301431658379733
1782853744276445000,1.31244482421875,2.7620027068912982,-1.5129796741351484,-0.3109920949287712
1782853744286429000,1.322428955078125,2.3602725025475024,-1.5596465866334734,-0.3447710669444874
1782853744296414000,1.3324140625,1.9674416439741849,-1.5307413946665822,-0.3654228463616222
1782853744306399200,1.342399169921875,1.6102695432811975,-1.473138369873166,-0.317102065709047
1782853744316383000,1.352383056640625,1.2076952893286943,-1.3851939828298985,-0.21805084944628178
1782853744326368000,1.362367919921875,0.7926064217180013,-1.2547113075256346,-0.06944744757246225
1782853744336351700,1.372351806640625,0.47559039032459255,-1.1295657554656267,0.05640340321268886
1782853744346337000,1.3823369140625,0.3071808660775423,-1.1044225463807582,0.1024805696569383
1782853744356321000,1.392321044921875,0.27717092773914337,-1.1246138321466743,0.09837620307803153
1782853744366306000,1.40230615234375,0.3728068921983242,-1.0630295556973666,0.1689273741086945
1782853744376291000,1.412291015625,0.5247469276815653,-0.9251819045830517,0.3741171345466748
1782853744386275000,1.422275146484375,0.5950865383207797,-0.7221706572279334,0.5802499845210463
1782853744396260000,1.432260009765625,0.6319651933848858,-0.4808651523897424,0.7620979592729359
1782853744406247000,1.442246826171875,0.6858826615333556,-0.23282752628494052,0.9320124081902206
1782853744416232200,1.452232177734375,0.700475835031271,0.04957911015059799,0.9862773746021092
1782853744426216000,1.4622158203125,0.41683600353896616,0.3497256571445614,0.9704693454217165
1782853744436201200,1.472201171875,-0.08583470141291617,0.5632856249123811,1.0980419054329396
1782853744446186000,1.48218603515625,-0.5886965450227261,0.5771970997564494,1.08653383846879
1782853744456170000,1.492169921875,-1.093783078944683,0.5820117334965617,1.0210890871990472
1782853744466155000,1.502155029296875,-1.7908166645675896,0.6962105057369917,0.9916368558086455
1782853744476139000,1.512138916015625,-2.4302830273628233,0.7391939804822206,0.8796472109850495
1782853744486124000,1.5221240234375,-2.8989275440722704,0.5881366461176425,0.709936906337738
1782853744496108000,1.53210791015625,-3.173791363912821,0.2688567614454776,0.5234186016872525
1782853744506093000,1.542093017578125,-3.4546874496549367,0.012893895299360155,0.38328557958211745
1782853744516078000,1.552078125,-3.7891210643172264,0.009707008891552685,0.3794138892479241
1782853744526062000,1.56206201171875,-4.049758790406584,0.06088109661601483,0.43237117059472946
1782853744536047000,1.572047119140625,-4.24154568310976,-0.00024056729022413492,0.41216118012834335
1782853744546031000,1.582031005859375,-4.30797718039453,-0.08088204744160175,0.45706656284686176
1782853744556015900,1.592015869140625,-4.333018682670593,-0.10416618465632199,0.6211041921526194
1782853744565999900,1.601999755859375,-4.200048136073351,-0.09223559969747439,0.7680260341476649
1782853744575985000,1.61198486328125,-3.8579859262287615,-0.02847127579534426,0.7983947958610952
1782853744585969000,1.621968994140625,-3.5560020442724225,0.15296718657389283,0.7450080735884607
1782853744595954000,1.631953857421875,-3.3493624503523107,0.3296134279642254,0.6884992737725377
1782853744605939000,1.64193896484375,-3.026388387337327,0.3140674472535029,0.5632249807663262
1782853744615923000,1.6519228515625,-2.7776006735175844,0.1778572063489817,0.3977618121694773
1782853744625908000,1.661907958984375,-2.5042548570245504,0.0831329042414669,0.24734884012304245
1782853744635892000,1.67189208984375,-2.1201976720154283,0.10485917188916355,0.03878299084808677
1782853744645877000,1.681876953125,-1.7364514526516197,-0.04748412889903411,-0.14624489258155227
1782853744655862000,1.691862060546875,-1.4871563738316296,-0.36085773040317,-0.31793190412931144
1782853744665845800,1.701845703125,-1.1136217518806457,-0.6360626187663525,-0.40420572761185464
1782853744675831000,1.7118310546875,-0.6971393840849399,-0.8892885342292487,-0.3551613088598475
1782853744685815000,1.72181494140625,-0.4456108471244573,-1.0172086655691266,-0.2865268764370121
1782853744695800000,1.731800048828125,0.023917466682195663,-0.9598884032398461,-0.28024996985830364
1782853744705784000,1.7417841796875,0.6180699390232562,-0.727824152944982,-0.3317806159354746
1782853744715769000,1.75176904296875,1.126909687998891,-0.49290159060955047,-0.3027669768917374
1782853744725754000,1.761754150390625,1.5402958433449268,-0.3838340072451159,-0.24097448278553782
1782853744735738000,1.771738037109375,1.9465350495457647,-0.40708296354860063,-0.1949542341602966
1782853744745723100,1.78172314453125,2.387921556973457,-0.47755540678724645,-0.18122746823336927
1782853744755707100,1.79170703125,2.8669015897363423,-0.5235657550729811,-0.16269047074681148
1782853744765692000,1.80169189453125,3.306933175423741,-0.543101609137468,-0.16640675132358446
1782853744775676000,1.811676025390625,3.683571024087071,-0.5528332410136237,-0.13464396883533336
1782853744785661000,1.821660888671875,3.9398564001858234,-0.5556491021519526,-0.13186503304075448
1782853744795645000,1.83164501953125,4.191970043557882,-0.5444973743448034,-0.22061889156969264
1782853744805630000,1.8416298828125,4.476670197758079,-0.5009757376022637,-0.3312828224811703
1782853744815615000,1.851614990234375,4.64490962613523,-0.4668672048386186,-0.4543197848893702
1782853744825599000,1.861598876953125,4.678499761047959,-0.4512781156385317,-0.502410665776208
1782853744835584000,1.871583984375,4.633095854222774,-0.48959451188817615,-0.4787009235605597
1782853744845568000,1.881568115234375,4.559987363392114,-0.527044244838506,-0.4214680472537875
1782853744855553000,1.891552978515625,4.393317960810661,-0.5548123955994844,-0.2586059462671168
1782853744865537000,1.901537109375,4.035456124287843,-0.5982569850504398,-0.014297204492334275
1782853744875521800,1.911521728515625,3.5824668573498726,-0.5928950196258723,0.24350082292538136
1782853744885507000,1.921507080078125,3.0786592573225495,-0.5301598926410078,0.40918647516649215
1782853744895490800,1.93149072265625,2.6089187620699406,-0.4117333466377109,0.46110012921188026
1782853744905476000,1.94147607421875,1.9745985299915074,-0.27846038302779197,0.4415115220468491
1782853744915459800,1.9514599609375,1.3074024487495421,-0.13961802178770302,0.4610333841186017
1782853744925445000,1.961445068359375,0.7147136192202568,-0.04361453919038176,0.5051604028757661
1782853744935429000,1.97142919921875,0.30492578062713144,0.027733079447597262,0.5573490744702517
1782853744945414100,1.9814140625,0.07247603814601898,0.05055383693426847,0.6925564402088522
1782853744955399000,1.99139892578125,-0.2253285122990608,0.12427081505209207,0.9053623747389763
1782853744965383200,2.001383056640625,-0.6349819108575582,0.3059408759538084,1.1581463916532695
1782853744975368000,2.011367919921875,-0.9515537056148051,0.3926516295488924,1.4155984734438358
1782853744985352000,2.02135205078125,-1.4475532622396945,0.34557964338101443,1.5697120535738764
1782853744995337000,2.0313369140625,-2.1705676768153905,0.3132067022383213,1.520352102599293
1782853745005321000,2.041321044921875,-2.934333203974366,0.44969731272049246,1.2020520227447151
1782853745015306000,2.051305908203125,-3.5177883412122726,0.7555784943763166,0.7785498393148184
1782853745025290000,2.0612900390625,-4.136048249849677,1.0010355294033884,0.3852252424078062
1782853745035275000,2.07127490234375,-4.866279756197333,1.017154743424803,-0.005958177752047777
1782853745045260000,2.081260009765625,-5.325141714560985,0.8641589883435518,-0.3375084189977497
1782853745055244000,2.091244140625,-5.69942160192132,0.7743786180447787,-0.6832045283652841
1782853745065229000,2.10122900390625,-5.988202887955308,0.8528471015386283,-0.8993941870495676
1782853745075213000,2.111213134765625,-6.122052555474639,0.9331461614605039,-0.7712639931555837
1782853745085197800,2.12119775390625,-6.2762073443979025,0.749348294749856,-0.48619814744815226
1782853745095181800,2.131181884765625,-6.31584318921566,0.3901469532515853,-0.13746442395038902
1782853745105166800,2.141166748046875,-6.192836987271905,0.2044802969943732,0.2004959765985608
1782853745115152000,2.15115185546875,-5.9105497394323345,0.2393053805295378,0.2726992256851867
1782853745125136000,2.161135986328125,-5.400792875611781,0.3376113679155707,0.05980009644627571
1782853745135121200,2.17112109375,-4.876948449727893,0.4630230966310948,-0.21534100596569478
1782853745145105000,2.18110498046875,-4.529686333152651,0.6159112266194074,-0.5416134894715622
1782853745155090200,2.191090087890625,-4.049985584899783,0.8076424436125904,-1.0200504648663102
1782853745165074000,2.201073974609375,-3.307763196507096,0.9944029595211148,-1.5079080699592828
1782853745175059200,2.21105908203125,-2.6669898427665233,1.1004416600510478,-1.7994972530208526
1782853745185044000,2.2210439453125,-2.1806460032373667,1.0983982445899396,-1.8247640884853897
1782853745195028000,2.231028076171875,-1.6366057615429161,0.9034553720738738,-1.6609351700268684
1782853745205013000,2.241012939453125,-1.0681851118296384,0.621665552362427,-1.4733046663507818
1782853745214997000,2.2509970703125,-0.49378947935998435,0.3422105322740972,-1.253278352113068
1782853745224982000,2.26098193359375,0.12188508895933628,0.07772402180209756,-1.03654713389799
1782853745234966000,2.270966064453125,0.7757236759781837,-0.09177373607307672,-0.8941162466466427
1782853745244951000,2.280950927734375,1.491564837923646,-0.1727108016375452,-0.7503066914532334
1782853745254936000,2.29093603515625,2.141167979329824,-0.22549645274449137,-0.6289310863859952
1782853745264920000,2.300920166015625,2.7745494692534205,-0.2444517669746652,-0.5641950313748791
1782853745274905000,2.310905029296875,3.4288948367506262,-0.2629746080717072,-0.5395268924558535
1782853745284889000,2.32088916015625,3.986994583457708,-0.2810203149099834,-0.5515902917478234
1782853745294873900,2.330873779296875,4.3845331813305615,-0.30971374555602665,-0.5433134983224794
1782853745304857900,2.34085791015625,4.674398170948028,-0.40082291677314785,-0.5831199139341712
1782853745314843000,2.3508427734375,4.931307231903076,-0.4935157039199024,-0.622106354932487
1782853745324827000,2.360826904296875,5.125808059740066,-0.6235050427492708,-0.6717747873343527
1782853745334812000,2.37081201171875,5.252338928678632,-0.782053536586836,-0.7301394441500306
1782853745344797000,2.380796875,5.286818121385574,-0.9239097657553851,-0.8304889200624078
1782853745354781000,2.390781005859375,5.249616810238361,-1.0568064433988182,-0.8407927988685667
1782853745364766000,2.400765869140625,5.139043973410129,-1.2542641482800245,-0.6961739731188863
1782853745374750000,2.41075,4.8257367334067816,-1.4804450396247206,-0.5056183027110993
1782853745384735200,2.4207353515625,4.476047097423672,-1.560935603530705,-0.4148991171922534
1782853745394719000,2.430718994140625,4.186979395663738,-1.55501381226629,-0.3762311675585806
1782853745404700400,2.440700439453125,3.8488615395307537,-1.4700857043042779,-0.31096586450897157
1782853745414685700,2.450685791015625,3.347367477142811,-1.2653482907436788,-0.2263722491983324
1782853745424669400,2.46066943359375,2.719723654088378,-1.0367286279447376,-0.17034005391821264
1782853745434654700,2.47065478515625,2.0980700113594533,-0.823860807159543,-0.1627012296028435
1782853745444638700,2.480638671875,1.5143822344094513,-0.5381638239417225,-0.21509360707588493
1782853745454623700,2.490623779296875,0.9889011472344398,-0.342683191287145,-0.25703677898794414
1782853745464607700,2.500607666015625,0.4565735551655292,-0.25415373436491934,-0.1860619391851127
1782853745474592800,2.5105927734375,-0.09753858321011066,-0.2362412437185645,-0.03900383052453398
1782853745484577500,2.52057763671875,-0.5702934578478336,-0.33433943357281387,0.22082637857422233
1782853745494561800,2.530561767578125,-0.9327128115445374,-0.4598473892044276,0.48308257271088656
1782853745504546600,2.540546630859375,-1.2617471975117922,-0.5258601130878553,0.6960428210198879
1782853745514530600,2.550530517578125,-1.523853242588043,-0.46435237247347827,0.761709471412003
1782853745524515600,2.560515625,-1.6689315756082534,-0.22390965847708283,0.7907038760323077
1782853745534499600,2.57049951171875,-1.94822256424129,0.08657317175529897,0.7920861972361802
1782853745544484600,2.580484619140625,-2.4318653281182048,0.2744985667247325,0.7492598858140409
1782853745554469600,2.5904697265625,-2.8554554820924998,0.32578627089150247,0.5553070472486317
1782853745564453600,2.60045361328125,-3.189191762140393,0.3121677145794034,0.2698287482827902
1782853745574438700,2.610438720703125,-3.4972651931434866,0.2739463396694511,0.15658227179851383
1782853745584422700,2.620422607421875,-3.6745401608914134,0.12598134529702365,0.20140147407092152
1782853745594407700,2.63040771484375,-3.5491619691193104,-0.06999298915863036,0.2084694762283936
1782853745604391700,2.6403916015625,-3.43314021923542,-0.18046843002699314,0.20195256861504166
1782853745614376400,2.65037646484375,-3.3406554122835397,-0.14311156299188732,0.19342859549559652
1782853745624361500,2.660361572265625,-3.1745109103590248,-0.08625511878207326,0.35016028570216146
1782853745634345500,2.670345458984375,-3.126680653169751,-0.259030217827484,0.6019399113468825
1782853745644330500,2.68033056640625,-3.0357044972151517,-0.5570587862867862,0.7408765998069197
1782853745654314500,2.690314453125,-2.711654913923144,-0.6744768128346651,0.8055765240587294
1782853745664299800,2.7002998046875,-2.2626655302762986,-0.5568158443763852,0.8729496861077845
1782853745674283500,2.710283447265625,-1.6585639108508825,-0.3238670663319528,0.8741393342837691
1782853745684268800,2.720268798828125,-1.0757657762169837,0.02361176173388958,0.8399132395550608
1782853745694252800,2.730252685546875,-0.5906161149084568,0.27780199218429624,0.8197204194191843
1782853745704237800,2.74023779296875,-0.23671499871015547,0.31555984123572706,0.7885117728155105
1782853745714222600,2.75022265625,-0.003304302242398262,0.19081578264869747,0.6962957728676498
1782853745724206600,2.76020654296875,-0.029289222848415373,0.10786058219484984,0.5856469481937587
1782853745734191600,2.770191650390625,-0.4661252273648977,0.08061112154573202,0.4775078413184732
1782853745744175600,2.780175537109375,-0.9893687647461891,-0.07844020724743604,0.37545112309679385
1782853745754160600,2.79016064453125,-1.2365133875340222,-0.3411838926400989,0.24261125367451458
1782853745764144600,2.80014453125,-1.13903384103477,-0.5446111734502017,0.08188738855924457
1782853745774129700,2.810129638671875,-1.0746879178524016,-0.6736453304465859,0.11243753472156821
1782853745784114700,2.82011474609375,-0.9857160874575376,-0.6173235045701265,0.21545042115692048
1782853745794098700,2.8300986328125,-0.7022516125321387,-0.32263240997046233,0.2393079195464961
1782853745804083700,2.840083740234375,-0.25787819824814795,0.05272694318965077,0.14068515782887114
1782853745814067700,2.850067626953125,0.1884820059388876,0.3969986457772553,-0.0031918365775607522
1782853745824052500,2.860052490234375,0.6086889472156762,0.6183565739449113,-0.1298462953631766
1782853745834036500,2.870036376953125,0.9847358442485332,0.6803052997924387,-0.13104496709583327
1782853745844021500,2.880021484375,1.2259107449769973,0.6422280825935304,0.1053165602678433
1782853745854005500,2.890005615234375,1.258144204583764,0.6271565509941428,0.3004211626842618
1782853745863990500,2.899990478515625,1.6027286263823508,0.5207429527372122,0.3076839567614719
1782853745873975600,2.9099755859375,1.9934464383244512,0.24620873017720876,0.2416831790441647
1782853745883959600,2.91995947265625,2.237581942424178,-0.0405971641305834,0.16025250301016494
1782853745893944600,2.929944580078125,2.500242114251852,-0.11518851393014191,0.06249764213429298
1782853745903928600,2.939928466796875,2.886174445483088,-0.0003058510787785053,-0.1168011732911691
1782853745913913600,2.94991357421875,3.278551715070009,0.1402873724166304,-0.21856732933474704
1782853745923897600,2.959897705078125,3.58886854108572,0.21454086856395005,-0.2373426473555155
1782853745933882600,2.969882568359375,3.804987326490879,0.24621859398409723,-0.2628699238545261
1782853745943867600,2.97986767578125,3.901920929545164,0.25930581989847123,-0.2534973345491104
1782853745953851600,2.9898515625,3.9146202521204945,0.3383099446389824,-0.2137547962201759
1782853745963836700,2.999836669921875,3.770065066191554,0.5329002043250948,-0.26605021612476554
1782853745973820700,3.009820556640625,3.5702322296768423,0.6326872971143573,-0.3093025344066322
1782853745983805700,3.0198056640625,3.356798153311014,0.6519727931469679,-0.259986422573775
1782853745993789700,3.029789794921875,2.971878213992715,0.656579117898643,-0.19700791528709233
1782853746003774700,3.039774658203125,2.545236855754256,0.6747476656652986,-0.15912508814912288
1782853746013759500,3.049759521484375,2.354050851553678,0.6315832083299756,-0.01619984150957316
1782853746023743700,3.05974365234375,2.062692993029952,0.48042672443985934,0.12689133628141133
1782853746033728500,3.069728515625,1.551944195562601,0.34025238394364715,0.2155207464467734
1782853746043712500,3.07971240234375,1.0117997922629118,0.34607860587909817,0.2771289152283221
1782853746053697500,3.089697509765625,0.6119347972691058,0.2784622827239334,0.30612984092095863
1782853746063681500,3.099681640625,0.13610416844785211,0.12759937495291232,0.29204854420162735
1782853746073666600,3.10966650390625,-0.34927696352899074,0.018507862723618745,0.2615994289946742
1782853746083650600,3.119650634765625,-0.8636106337457895,-0.06063172496482729,0.27447522238176314
1782853746093635600,3.129635498046875,-1.3174299217671155,-0.03619666414931416,0.16984996884632855
1782853746103620600,3.13962060546875,-1.6738567570507525,0.19825009736791252,0.08006191756459884
1782853746113604600,3.1496044921875,-2.1209850230008365,0.46878261000588534,0.018760832837689666
1782853746123589600,3.159589599609375,-2.722944369700551,0.7485143281437456,-0.022743048041383735
1782853746133573600,3.16957373046875,-3.353976081627607,0.956866571200639,-0.08101217662729322
1782853746143558400,3.179558349609375,-4.044644808393716,1.0122671175137161,-0.14190858041029422
1782853746153542400,3.18954248046875,-4.642673245385289,0.7524049058414995,-0.13293302759844808
1782853746163527700,3.199527587890625,-4.993103470602631,0.2329807075526565,-0.20868500040890647
1782853746173512700,3.2095126953125,-5.122748087647557,-0.19549948348551988,-0.4626698262140155
1782853746183496700,3.21949658203125,-5.062089913067221,-0.3432441861707717,-0.7862852558724581
1782853746193481700,3.229481689453125,-4.88118564890623,-0.27395605734586714,-1.0035163133684546
1782853746203465700,3.2394658203125,-4.571313644048571,-0.16854717915207146,-0.9917419236183166
1782853746213450800,3.24945068359375,-4.180018324479461,-0.214103134733811,-0.8304292257644236
1782853746223434800,3.259434814453125,-3.814226279479265,-0.4172806785665452,-0.5741795785661786
1782853746233419800,3.269419677734375,-3.4072225186467167,-0.6634818830244242,-0.3067923051513731
1782853746243404500,3.279404541015625,-2.9064281289607283,-0.7683033167190849,-0.1647878996837884
1782853746253388500,3.289388427734375,-2.3719547570347785,-0.6018050329208373,-0.19302339396188034
1782853746263373600,3.29937353515625,-1.8877707258880136,-0.2705040537284687,-0.2890781318224035
1782853746273357600,3.309357666015625,-1.4536305363267659,0.03498743449002504,-0.4937186060808599
1782853746283342600,3.319342529296875,-1.0049117863148451,0.24973062069304286,-0.676233520308882
1782853746293326600,3.32932666015625,-0.7122235559701919,0.34739158817380666,-0.8067939370244741
1782853746303311600,3.3393115234375,-0.6048614978820085,0.2711702260196209,-0.820634246328473
1782853746313296600,3.349296630859375,-0.5807429556697606,-0.007387078044004738,-0.7580831706736236
1782853746323280600,3.35928076171875,-0.5467348876059055,-0.3901778233138844,-0.64601943770051
1782853746333265700,3.369265625,-0.32464988727271554,-0.6313784795381129,-0.570643988318555
1782853746343249700,3.379249755859375,-0.03614800270199776,-0.6331296340543776,-0.5144622650325298
1782853746353234400,3.389234375,0.29940964755415916,-0.648562254051119,-0.3693922979818657
1782853746363218400,3.399218505859375,0.6090823304474353,-0.720408908252418,-0.24238202976221218
1782853746373203500,3.409203369140625,0.8940840979427098,-0.6934151759300381,-0.17001756223188713
1782853746383187500,3.4191875,1.3417080384552478,-0.5609035155488178,-0.10229746817499398
1782853746393172500,3.42917236328125,1.7966268121510742,-0.4228852205753326,-0.06809634349076077
1782853746403157800,3.43915771484375,2.1922785733640193,-0.2577051797688007,-0.07853270783647895
1782853746413141800,3.449141845703125,2.5379607272714373,-0.1215577932337299,-0.1045638422043994
1782853746423126800,3.459126708984375,2.850141009071469,-0.09265417216941714,-0.05282578218793496
1782853746433110800,3.46911083984375,3.058390376275778,-0.18373784361910073,-0.019109847204759715
1782853746443095800,3.479095703125,3.2117350178599358,-0.3362186714481562,0.010628288454934954
1782853746453079800,3.489079833984375,3.3993227053076027,-0.5130675592711195,0.04713206405835226
1782853746463064600,3.499064697265625,3.5772564292252063,-0.6502636511415243,0.06142466544080525
1782853746473049600,3.509049560546875,3.7113925124704834,-0.7328194039490074,0.0728488169811666
1782853746483033600,3.51903369140625,3.6626620915710926,-0.7826460956525058,0.08187007209826261
1782853746493018600,3.5290185546875,3.534893205270171,-0.7202556173868477,0.054906077327020464
1782853746503002600,3.539002685546875,3.474503910759091,-0.6033862011650577,0.03630680999290198
1782853746512987600,3.548987548828125,3.341215968775749,-0.5389957081886008,0.005695873554050922
1782853746522971600,3.5589716796875,3.105184860676527,-0.4259082216583192,-0.048503151482157406
1782853746532956700,3.568956787109375,2.8492081121355293,-0.2514611708126962,-0.10990107504650949
1782853746542940700,3.578940673828125,2.660645442175865,-0.1345444448504597,-0.10725520018022507
1782853746552925700,3.58892578125,2.3821494033128023,-0.09486059617251157,0.005307349160499871
1782853746562910500,3.598910400390625,1.9084978720963,-0.10299407213702798,0.18966906029898672
1782853746572894500,3.60889453125,1.3647060522049665,-0.09926336117610335,0.34894948514029384
1782853746582879500,3.61887939453125,0.8175573231011629,-0.07415624631792306,0.4218558775275945
1782853746592863500,3.628863525390625,0.327235812112689,0.00023000936359167097,0.3499855501897633
1782853746602848500,3.6388486328125,-0.06907996596693992,0.10515066564902663,0.30754922446589916
1782853746612832500,3.64883251953125,-0.4094254350215196,0.22680391861386595,0.3263273189656436
1782853746622817500,3.658817626953125,-0.8153121745228767,0.290036912118271,0.4210089053094387
1782853746632802800,3.668802734375,-1.0176561170756817,0.18990553593598306,0.5049849732436239
1782853746642786600,3.67878662109375,-1.1713368587464092,0.09725567461550236,0.4671818237457424
1782853746652771600,3.688771484375,-1.3773469225913286,0.09919972135536372,0.39490251374822105
1782853746662755800,3.698755859375,-1.6587041961044071,0.08932955779135227,0.43141445439178494
1782853746672740600,3.70874072265625,-2.064932880911231,0.07303038409315049,0.5098023103974759
1782853746682724600,3.718724609375,-2.3941788638025523,0.045929830395430325,0.6945625923994928
1782853746692709600,3.728709716796875,-2.7508897767245766,0.0396850907869637,0.787438955952227
1782853746702694700,3.738694580078125,-3.1066964342832564,0.09006013708822429,0.7603708432193845
1782853746712678700,3.7486787109375,-3.2978403529077767,0.19150055004246533,0.6771866563152521
1782853746722663700,3.75866357421875,-3.2915234248459337,0.21493132918626068,0.5986080635104328
1782853746732647700,3.768647705078125,-3.2050475029200314,0.17711795055530966,0.5059168472662567
1782853746742632700,3.7786328125,-3.070703914403915,0.17121515625230968,0.4420617032755166
1782853746752616700,3.78861669921875,-3.0501907032072544,0.048218818115442985,0.5333341752955689
1782853746762601700,3.798601806640625,-3.0733786865711212,-0.23038111951351165,0.6423089658100157
1782853746772585700,3.808585693359375,-3.0631086369693277,-0.5839099683333188,0.6555242020182311
1782853746782570500,3.818570556640625,-2.944163108593225,-0.8172343016918748,0.6305758579183369
1782853746792555500,3.828555419921875,-2.7570132280409334,-0.8841793745219707,0.6501732694443315
1782853746802539500,3.83853955078125,-2.533813544464111,-0.8797296285714954,0.6552079756759107
1782853746812524500,3.848524658203125,-2.2093337530612946,-0.8337049594994634,0.563451263802871
1782853746822508500,3.858508544921875,-1.816077362552285,-0.6124477517599239,0.5339739710364491
1782853746832493600,3.86849365234375,-1.501333367744088,-0.34780743896570054,0.5415195641104131
1782853746842477600,3.8784775390625,-1.412176828432083,-0.27108762577008455,0.48298722257763144
1782853746852462600,3.888462646484375,-1.4861065725177525,-0.30437234799545254,0.349764673980698
1782853746862447600,3.898447509765625,-1.4748025036931036,-0.3912323373354971,0.2643228443428874
1782853746872431600,3.908431640625,-1.4386363808125258,-0.4762443241886794,0.2462629445824772
1782853746882416600,3.918416748046875,-1.4480010060071944,-0.6245113702476024,0.28346330588161944
1782853746892400400,3.928400390625,-1.3397013748079538,-0.7986656486917286,0.27297449896261095
1782853746902385700,3.9383857421875,-1.0895277595877646,-0.8209457234304398,0.23653445451147853
1782853746912369700,3.94836962890625,-0.7817343145698309,-0.6791705966740846,0.2253817037910223
1782853746922354700,3.958354736328125,-0.39761926189363,-0.37528964892476796,0.18463724014423785
1782853746932338700,3.968338623046875,0.08372633095681667,-0.0251517942501232,0.11651928760986774
1782853746942323700,3.97832373046875,0.49794250738620754,0.2335252079592086,-0.020849676609411835
1782853746952308700,3.988308837890625,0.8806377563923596,0.298049300720077,-0.12245828573741017
1782853746962289700,3.99828955078125,1.144616025081277,0.21586358680138362,-0.14887147822547703
1782853746972274400,4.0082744140625,1.3743722906947136,0.1335143346177414,-0.19058054912071673
1782853746982258400,4.018258544921875,1.7322563390493393,0.03754378617564216,-0.178580606986396
1782853746992243500,4.028243408203125,2.035402250522375,-0.14514316015103831,-0.11972856851257384
1782853747002227500,4.0382275390625,2.3154507795244452,-0.3592372895944863,-0.08748020359762013
1782853747012212500,4.04821240234375,2.5932079827189445,-0.5337260241573676,-0.0729386141564697
1782853747022196500,4.058196533203125,2.8175539137214423,-0.6185593299753963,-0.09733860365860164
1782853747032181500,4.068181396484375,3.0484768850266932,-0.6354481401298194,-0.20202347842678425
1782853747042165500,4.07816552734375,3.4067613308757543,-0.5977440305596217,-0.2403282573038712
1782853747052150800,4.08815087890625,3.6718472685456276,-0.5957126708624884,-0.2659048528373241
1782853747062135800,4.0981357421875,3.6620939362943172,-0.6132217683397233,-0.2764724240809679
1782853747072119800,4.108119873046875,3.528435991954803,-0.7138534221943468,-0.22574144048150627
1782853747082104600,4.1181044921875,3.4153964727520942,-0.8513136083610355,-0.1008137689558789
1782853747092088600,4.128088623046875,3.2505531165540216,-0.9864092573534696,0.06379336733352392
1782853747102073600,4.138073486328125,2.9289871667712926,-1.065070048549026,0.2029958305902779
1782853747112057600,4.1480576171875,2.74486043343246,-0.9866878550991416,0.24480123799946157
1782853747122042600,4.158042724609375,2.6949159605681894,-0.7606144427169114,0.21695622260998934
1782853747132027600,4.168027587890625,2.5411890416681766,-0.45449652969576415,0.230499083337374
1782853747142011600,4.17801171875,2.1754636321634053,-0.22711853752098976,0.32820896799378096
1782853747151996700,4.18799658203125,1.6567396180331706,-0.12047339553050695,0.4285335286606103
1782853747161980700,4.197980712890625,0.9945902987867593,-0.08464278821460902,0.5027615615731105
1782853747171965700,4.207965576171875,0.42326691336929795,-0.06232954185865819,0.5413092823605984
1782853747181949700,4.21794970703125,-0.0255541279733181,-0.053658817212283605,0.6375848598975687
1782853747191934500,4.2279345703125,-0.5297895980238915,-0.1446762550253421,0.8195832029055804
1782853747201918700,4.237918701171875,-0.8963988046258687,-0.18462167724892495,0.9844995512746274
1782853747211903500,4.247903564453125,-1.1833113741785286,0.05583937612175941,1.0276051910948008
1782853747221888500,4.257888427734375,-1.3262228845536708,0.5429081689245998,0.8728877267874777
1782853747231872500,4.26787255859375,-1.2674293348014354,0.9907616804093122,0.6978508202899247
1782853747241857500,4.277857421875,-1.4433482117652892,1.197774637686461,0.4846014528412372
1782853747251841500,4.287841552734375,-1.8516034339636562,1.1947552898652851,0.3378438980298117
1782853747261826600,4.29782666015625,-2.2760499125063416,1.2346129607401788,0.2688406505608931
1782853747271810600,4.307810546875,-2.650520354002714,1.28245753871575,0.20610092046614736
1782853747281795600,4.317795654296875,-3.1013918981343505,1.1224402874998747,0.2256019589455798
1782853747291780600,4.327780517578125,-3.575397649616003,0.9298070071004331,0.20756028896160422
1782853747301764600,4.3377646484375,-3.968139660862088,0.8006573339655995,0.208800936672464
1782853747311749600,4.34774951171875,-4.274665277901292,0.765129070597142,0.05137534591760486
1782853747321733600,4.357733642578125,-4.422244780087471,0.875549493342638,-0.25540793567709624
1782853747331718700,4.36771875,-4.356602971875668,1.0348796390771866,-0.4761118203828111
1782853747341702700,4.37770263671875,-4.230792818427085,1.1403049569491297,-0.5892855238918214
1782853747351687700,4.387687744140625,-4.002772582826018,1.2052819445766507,-0.5532053622616455
1782853747361672700,4.397672607421875,-3.7088825754761694,1.1766457057442516,-0.40510808327905834
1782853747371656700,4.40765673828125,-3.376082114973664,1.0649030944842846,-0.30803660612404343
1782853747381641700,4.417641845703125,-2.999792641356587,1.0088247950401157,-0.35886809095591304
1782853747391625700,4.427625732421875,-2.517959557250142,1.1297022413268685,-0.5894880241939797
1782853747401610500,4.437610595703125,-2.0469348674058914,1.3610212262123822,-0.9571087824586778
1782853747411594800,4.4475947265625,-1.675435550674796,1.5391975267142057,-1.201116203199327
1782853747421579800,4.457579833984375,-1.5020698653250932,1.595782022114843,-1.363951726706326
1782853747431563800,4.467563720703125,-1.3926491211414336,1.4854907787069678,-1.4492451608493924
1782853747441548800,4.477548828125,-1.2548229512065647,1.2077436585150658,-1.5083695499911904
1782853747451533800,4.487533935546875,-1.0181032763212918,0.9022736880086362,-1.5968449751712381
1782853747461517800,4.497517822265625,-0.6556213787823915,0.7049865904539823,-1.6568327031441032
1782853747471502800,4.5075029296875,-0.20718319927752016,0.5945667522303759,-1.6474202932849527
1782853747481486800,4.51748681640625,0.2964747631460428,0.48711416631452736,-1.5380381275460122
1782853747491472000,4.527471923828125,0.810813109537959,0.4005591878030449,-1.4067679551258683
1782853747501456000,4.537455810546875,1.3383680803775786,0.29594635535776614,-1.2394340972863136
1782853747511440600,4.547440673828125,1.866790481701493,0.1678298246629536,-1.0885358259409665
1782853747521425000,4.5574248046875,2.2855302730351683,-0.0048161681100726125,-0.9594584873899817
1782853747531409700,4.56740966796875,2.679505040946603,-0.08628186065852642,-0.8600225461259484
1782853747541394700,4.577394775390625,3.161828538918495,-0.12201236860081553,-0.8002432002067565
1782853747551378700,4.587378662109375,3.484778052014112,-0.2005808784030378,-0.7423540519483387
1782853747561363700,4.59736376953125,3.720559569266438,-0.3286967515107244,-0.781243608443439
1782853747571347700,4.60734765625,3.986209570559859,-0.4758411502152681,-0.7691428362831473
1782853747581332700,4.617332763671875,4.168238454836607,-0.6835305454492568,-0.756124145560339
1782853747591316700,4.627316650390625,4.350630911728739,-0.9417000547941774,-0.7022896795202046
1782853747601301800,4.6373017578125,4.361637458911538,-1.1667788301158695,-0.5589654966909438
1782853747611286500,4.64728662109375,4.281888799414038,-1.314702250368893,-0.4413547240499407
1782853747621270800,4.657270751953125,4.155504645469785,-1.3995795049265025,-0.33565665365122255
1782853747631255600,4.667255615234375,3.8881221212953325,-1.4518433606490493,-0.2457936465702951
1782853747641239600,4.677239501953125,3.5348125412493943,-1.438260825498402,-0.17297106000892817
1782853747651224800,4.687224853515625,3.1884500038623806,-1.3800655339002608,-0.19490860492028295
1782853747661208600,4.69720849609375,2.849369440177083,-1.2869593801796435,-0.28357465730160475
1782853747671193900,4.70719384765625,2.3427041126310826,-1.2207161720085888,-0.2910773610819131
1782853747681179000,4.717178955078125,1.7098118675291538,-1.109144533401355,-0.30243272170238195
1782853747691163000,4.727162841796875,1.1307295385479927,-0.9861513370696454,-0.2632290577568114
1782853747701148000,4.73714794921875,0.6500836183995008,-1.018711544412747,-0.12645137396156786
1782853747711132000,4.7471318359375,0.14795885689258576,-1.100882243425399,-0.020787351962924003
1782853747721116700,4.75711669921875,-0.26215631395876404,-1.0844663114797324,0.14991846652776003
1782853747731100700,4.7671005859375,-0.5330518146902322,-1.0436930601298808,0.3175502844005823
1782853747741085700,4.777085693359375,-0.7837199354290961,-1.023379243962839,0.3552403289128095
1782853747751069700,4.787069580078125,-0.9401835858166218,-1.0197847996674478,0.3126540367916226
1782853747761054700,4.7970546875,-0.9979401937365532,-1.0546744728714228,0.3340822439413518
1782853747771039700,4.807039794921875,-1.1791396414518356,-1.1324761630196123,0.3797686940349638
1782853747781023700,4.817023681640625,-1.4305939441323279,-1.2067852618116885,0.4972044023700058
1782853747791008800,4.8270087890625,-1.7310913869231939,-1.2486878094524145,0.6291347191993146
1782853747800992800,4.83699267578125,-2.08408824775815,-1.242288902195543,0.6482493887096643
1782853747810977800,4.846977783203125,-2.483354107815027,-1.1076370514478533,0.6263041719485074
1782853747820961800,4.8569619140625,-2.97587809728384,-0.867440786493197,0.6154002814225852
1782853747830946600,4.866946533203125,-3.4881162565261126,-0.655214332351461,0.5466305504485964
1782853747840931600,4.876931640625,-3.91250311383605,-0.5506788029260933,0.43278413530979304
1782853747850915600,4.88691552734375,-4.138489213261008,-0.5136205535113811,0.3544440639685839
1782853747860900600,4.896900634765625,-4.182848579469323,-0.46241672823578117,0.4157832065504044
1782853747870884600,4.906884521484375,-4.048146094512939,-0.34118893414139745,0.247394432830438
1782853747880869600,4.91686962890625,-3.8001352102845907,-0.08448752458766103,0.17170326856281606
1782853747890853600,4.926853515625,-3.5536727245420217,0.07246917001381516,0.4020989645909518
1782853747900839000,4.9368388671875,-3.4538790558815,-0.07652575192824006,0.7245205082897096
1782853747910822700,4.94682275390625,-3.24410350202322,-0.2639442202888429,0.8351542815249413
1782853747920808000,4.956807861328125,-2.905397616869211,-0.3041808074787259,0.8353422783777117
1782853747930792700,4.966792724609375,-2.482718732520938,-0.2057575503885746,0.8146160089522599
1782853747940776700,4.976776611328125,-2.1117209355711934,-0.053957434832677245,0.7981747964348643
1782853747950761700,4.98676171875,-1.7582359989583491,0.1908178284753114,0.7335429689832031
1782853747960745700,4.996745849609375,-1.3646926082015036,0.4541483738452196,0.7321088445268571
1782853747970730800,5.006730712890625,-1.0890180564999579,0.5962297900717705,0.6657629796989262
1782853747980714800,5.01671484375,-0.8945447011917829,0.6633776919975877,0.5794795846704394
1782853747990699800,5.02669970703125,-0.7624240494221448,0.7035523198671638,0.512497979222238
1782853748000683800,5.036683837890625,-0.6273650061130523,0.7095950340975076,0.4703672488488257
1782853748010668800,5.046668701171875,-0.49911973447203634,0.6871784734975546,0.40033535245191304
1782853748020653800,5.05665380859375,-0.3327484380543232,0.6459153197389096,0.3120946858758107
1782853748030637800,5.066637939453125,-0.14585633165538311,0.598752294286713,0.24145203716941177
1782853748040622600,5.07662255859375,0.053990533384680746,0.5325865352660417,0.2055901213997975
1782853748050606800,5.08660693359375,0.2708908245563507,0.4521625337902456,0.17999684872617944
1782853748060591600,5.096591552734375,0.5642646990776061,0.41100539768934247,0.16506742901122196
1782853748070575600,5.10657568359375,0.9096972621381282,0.42624424867965277,0.13121867969492448
1782853748080560600,5.116560546875,1.2881453750938177,0.4654256277281791,0.07477731909202412
1782853748090545700,5.126545654296875,1.7089631417453288,0.5428204175759107,0.0835572123344522
1782853748100529700,5.13652978515625,2.0739602369755503,0.6401324985537677,0.06563246042814572
1782853748110514700,5.1465146484375,2.3635031550318,0.7029696246083825,0.13335747268875128
1782853748120498700,5.156498779296875,2.6240105327397583,0.5600536572538316,0.19408627395303918
1782853748130483700,5.166483642578125,2.8377941531956195,0.27702808520235117,0.22436891001928597
1782853748140467700,5.1764677734375,3.008763298797607,0.02461319386139512,0.23481943075452
1782853748150452700,5.18645263671875,3.226167447838187,-0.05084017959497869,0.21624301457302644
1782853748160437800,5.196437744140625,3.480886305272579,-0.030584377225488422,0.15340159593578429
1782853748170421800,5.206421875,3.720160925337672,-0.016932357035204768,0.06805149970203637
1782853748180406800,5.21640673828125,3.87855992770195,-0.03606134733185172,-0.018109590970899443
1782853748190390800,5.226390869140625,4.047074665889144,-0.07160714635699987,-0.12140015498660504
1782853748200375800,5.236375732421875,4.206188538524509,-0.063668973768875,-0.12942549440152942
1782853748210359800,5.24635986328125,4.212373949161171,-0.10547288334071636,-0.06244396201856434
1782853748220344800,5.2563447265625,4.040210040816665,-0.14348726443648338,-0.011535439028264954
1782853748230328800,5.266328857421875,3.9100533825963733,-0.11291545443162321,0.10048201625086367
1782853748240313900,5.27631396484375,3.750459617489576,-0.1071014343906194,0.2689314706495032
1782853748250298600,5.286298583984375,3.420696917247772,-0.12650982615053652,0.42694585761036724
1782853748260283000,5.296282958984375,2.971676553940773,-0.1291417090240866,0.5368809445243329
1782853748270267600,5.306267578125,2.4721394708395,-0.11827493563815951,0.6297995397835969
1782853748280251600,5.316251708984375,1.7492945676118135,-0.17080431042909622,0.6756810740578919
1782853748290236700,5.326236572265625,1.0957704533696173,-0.20815058300495146,0.601980243357271
1782853748300220700,5.336220703125,0.5866589017152786,-0.17028832373097538,0.49532801403887566
1782853748310205700,5.346205810546875,-0.03947100964486599,-0.047440527219325304,0.42740445156544443
1782853748320190700,5.356190673828125,-0.5656348183870316,0.05455591218248009,0.5568916495589539
1782853748330174700,5.3661748046875,-0.9052356065541505,0.15858765680417417,0.7376426593869924
1782853748340159700,5.37615966796875,-1.3315595694065092,0.25097689442709087,0.8427936172969639
1782853748350143700,5.386143798828125,-1.8319266735911368,0.2587418293401599,0.807309266135469
1782853748360128800,5.396128662109375,-2.3623440481245517,0.23394568012729286,0.6700849345512688
1782853748370112800,5.40611279296875,-2.9641221930384636,0.319666692032665,0.3594685410670936
1782853748380097500,5.41609765625,-3.473445341616869,0.4910945411875844,0.13343851116886363
1782853748390081500,5.42608154296875,-3.990208284807205,0.7252858666390181,0.026019261267036197
1782853748400066800,5.43606689453125,-4.44059818290174,0.8755850030474365,-0.14669154037050902
1782853748410052400,5.44605224609375,-4.76473602899909,0.813238729249686,-0.3157669811803847
1782853748420036400,5.456036376953125,-4.969661220216751,0.525382814432308,-0.46035676349867133
1782853748430021400,5.466021484375,-5.017141933315992,0.27393092290461063,-0.6224170283168554
1782853748440005400,5.47600537109375,-5.029242705476284,0.2867547486424446,-0.8973984831877052
1782853748449990400,5.485990478515625,-4.83939058022797,0.4656748532488942,-1.0730874969184399
1782853748459974400,5.495974365234375,-4.589655940946936,0.602516103799641,-1.016391942358762
1782853748469959200,5.505959228515625,-4.460881676995754,0.4776194119341671,-0.8186671840392052
1782853748479944200,5.515944091796875,-4.247370443740487,0.09341120108179747,-0.662550885784626
1782853748489928200,5.52592822265625,-3.793877318933606,-0.24706162067949772,-0.554940150164999
1782853748499913200,5.535913330078125,-3.279898453503847,-0.3381626451227814,-0.5673890416432171
1782853748509897200,5.545897216796875,-2.7438591474354266,-0.14737104706726967,-0.7292559393137693
1782853748519882200,5.55588232421875,-2.1726345462173224,0.09470021797902882,-0.9549177021551877
1782853748529866200,5.5658662109375,-1.600344946116209,0.26779278547577556,-1.2062072427280246
1782853748539851300,5.575851318359375,-1.08360538380146,0.37282070152796803,-1.4487204063229262
1782853748549835300,5.585835205078125,-0.8534381992995739,0.4657140892807394,-1.7147440632343292
1782853748559820300,5.5958203125,-0.6639262657910585,0.4482664761997759,-1.8404685842260717
1782853748569805000,5.60580517578125,-0.46653673077523705,0.2599390032354742,-1.8693812288470566
1782853748579789000,5.6157890625,-0.13436989200115204,-0.07608136916160584,-1.8013897887691854
1782853748589774000,5.625774169921875,0.4159218113034963,-0.4416478617776185,-1.595893227404356
1782853748599758000,5.635758056640625,0.8399971184462308,-0.800744500792399,-1.2221765268847347
1782853748609743400,5.645743408203125,1.0318179134190082,-1.0927653532695025,-0.8666419642657041
1782853748619727000,5.65572705078125,1.2361889778852462,-1.1729695014495403,-0.6849101632393896
1782853748629712400,5.66571240234375,1.6502011561751364,-1.0930548377353697,-0.5601624513905495
1782853748639696100,5.675696044921875,2.0471540631145237,-0.9677616208329797,-0.5077688318084925
1782853748649681400,5.685681396484375,2.4091145671278236,-0.749939246380329,-0.4848500938400626
1782853748659666200,5.695666259765625,2.7834242651045322,-0.5579009727319703,-0.42024402188416565
1782853748669650400,5.705650390625,3.072331223344803,-0.610011720252037,-0.3614122955460101
1782853748679635200,5.71563525390625,3.248642314496636,-0.8441481006458401,-0.25970837281737474
1782853748689619200,5.725619140625,3.261455618840456,-1.1346190933324396,-0.13523892078748903
1782853748699604200,5.735604248046875,3.2957010027915237,-1.448870043926686,0.08782685247766785
1782853748709588200,5.745588134765625,3.248843390026688,-1.7509905578747391,0.14239400757336987
1782853748719573200,5.7555732421875,3.248127935233712,-1.9233257311329244,0.02322522836802527
1782853748729558300,5.765558349609375,3.3297675230443478,-1.9394065128400921,-0.09604860038068144
1782853748739542300,5.775542236328125,3.261426977267861,-1.9108317218713462,-0.20237364357132465
1782853748749527300,5.78552734375,3.060287149807811,-1.8418420645363627,-0.2366200139030814
1782853748759511300,5.79551123046875,2.8175848933815955,-1.859255994543433,-0.1941630472499877
1782853748769496300,5.805496337890625,2.4697446846574542,-1.8389922280631958,-0.11352142096813768
1782853748779480300,5.815480224609375,2.133596667292714,-1.7439321637958287,0.051487756783515214
1782853748789465000,5.825465087890625,1.7565759567916392,-1.6082593725025653,0.08590265208259225
1782853748799450000,5.8354501953125,1.3934937552720308,-1.3804058717705308,0.13165423983428626
1782853748809434000,5.84543408203125,1.0262918434739112,-1.1418896688573061,0.21792285741874948
1782853748819419100,5.855419189453125,0.615049129897356,-0.9770480662249028,0.3371048431655392
1782853748829403100,5.865403076171875,0.13129647590517998,-0.844279398875311,0.531405874114111
1782853748839388200,5.87538818359375,-0.3524877422690391,-0.7683972055476158,0.6365468951519578
1782853748849372200,5.8853720703125,-0.7548235112905501,-0.6140822576265782,0.6398568234175444
1782853748859357400,5.895357421875,-1.0946300511628388,-0.4001015802286565,0.607654708797112
1782853748869341200,5.905341064453125,-1.0689771389901637,-0.23115049645081162,0.41485045574493706
1782853748879326500,5.915326416015625,-1.0431418559879064,-0.05634345318637788,0.2882718752071261
1782853748889311200,5.925311279296875,-1.2017086161345243,0.09652560677528381,0.26770682422537356
1782853748899295200,5.935295166015625,-1.320711427655816,0.12117328742817043,0.3254597058182582
1782853748909280300,5.9452802734375,-1.4880045150935648,0.057216509693861,0.45322106639984994
1782853748919264300,5.95526416015625,-1.7338088291883467,0.00841667682006955,0.5934430819626897
1782853748929249300,5.965249267578125,-1.8616741616010666,0.11051087750792503,0.6351192004363984
1782853748939233300,5.9752333984375,-1.8228151463747024,0.3406711938776076,0.6348469593662768
1782853748949218300,5.98521826171875,-1.8626140727996825,0.5726831294633448,0.6212827635899186
1782853748959203300,5.995203369140625,-2.0439725104689597,0.7286654260747134,0.620779344112426
1782853748969187300,6.005187255859375,-2.2575866195768115,0.8097608240060508,0.627429376586154
1782853748979172400,6.01517236328125,-2.215259051457047,0.7637189115382731,0.6369195278566331
1782853748989156400,6.02515625,-2.175340882566571,0.570814120721072,0.6799694919668138
1782853748999141000,6.03514111328125,-2.1521429623305797,0.49108226622790097,0.5983400967566296
1782853749009125000,6.045125,-2.099042071262002,0.598804974322021,0.5308667257361114
1782853749019110100,6.055110107421875,-2.164811305245757,0.7308132517583668,0.5570246648214757
1782853749029094100,6.06509423828125,-2.2520441830188034,0.6872352451860905,0.6186633018065244
1782853749039079200,6.0750791015625,-2.2166180648505684,0.4623420555643737,0.6702275578923523
1782853749049064200,6.085064208984375,-2.0251053129136563,0.1971712160900235,0.7650209340475499
1782853749059048200,6.095048095703125,-1.8453034570366142,0.2636648188255727,0.8110368352912366
1782853749069033200,6.105033203125,-1.455588684657216,0.5096624635353684,0.8592661017354577
1782853749079017200,6.115017333984375,-1.0112620321244001,0.7521092838957906,0.8452652681075036
1782853749089002200,6.125002197265625,-0.7934376118451356,0.8921380784414709,0.7001622390374541
1782853749098986200,6.134986328125,-0.7575655034750699,0.9740415778852999,0.5401962796173989
1782853749108971300,6.14497119140625,-0.7015449255675077,1.0155749268874525,0.2816552335463464
1782853749118956300,6.154956298828125,-0.6707733552068471,1.0123664862349628,0.1033807516333647
1782853749128940300,6.164940185546875,-0.6559685847848653,0.893930953207612,0.11409865460051223
1782853749138925300,6.17492529296875,-0.6262625978291034,0.5472952979676425,0.2657954376460984
1782853749148909300,6.184909423828125,-0.5067383927822112,0.15450725562274456,0.39272184524089093
1782853749158894300,6.194894287109375,-0.10393617529273033,-0.03411488943919539,0.5070387274356558
1782853749168878300,6.20487841796875,0.24441432104110716,0.05246230090409517,0.5915198222825303
1782853749178863400,6.21486328125,0.6661322514027357,0.1976720052190125,0.6122984064171091
1782853749188848400,6.224848388671875,1.0555980174571276,0.25234306821376085,0.5480369831804186
1782853749198832400,6.234832275390625,1.2471715596705675,0.33759733939021824,0.48044418703131375
1782853749208817200,6.244817138671875,1.5774825414448976,0.5292739766519516,0.3918605522364378
1782853749218801200,6.25480126953125,2.047466782325506,0.6281729614950716,0.2054045722324401
1782853749228786200,6.2647861328125,2.1619436408549544,0.46918622237071395,0.11469067481006495
1782853749238770200,6.274770263671875,2.179060195350647,0.2848890278358012,0.1293409213906154
1782853749248755200,6.284755126953125,2.2999761470168827,0.1586114760711789,0.16471735519822686
1782853749258739200,6.2947392578125,2.4998849713772535,0.010473170958459376,0.25058120964039116
1782853749268724200,6.30472412109375,2.6658763285666702,-0.136605615163967,0.26482334121093154
1782853749278709200,6.314709228515625,2.83838919647932,-0.18270378786362707,0.29865270997332405
1782853749288693200,6.324693359375,2.9849913780659434,-0.132807538055256,0.3654722019286826
1782853749298678300,6.33467822265625,3.149992555174231,-0.13447561739794908,0.34970063230115916
1782853749308662300,6.344662353515625,3.358903601157665,-0.27818368497826157,0.25017949697170405
1782853749318647000,6.35464697265625,3.389783308067918,-0.29976795947253704,0.249763591380883
1782853749328631000,6.364631103515625,3.275368408858776,-0.28065095187462863,0.29627945976965125
1782853749338616000,6.374615966796875,3.0288381185770032,-0.26674020768292245,0.34607864241171626
1782853749348601300,6.384601318359375,2.735537893813848,-0.26678609265126285,0.3922015111612156
1782853749358585300,6.39458544921875,2.4637328770220277,-0.26174013437330723,0.3805414319731295
1782853749368570400,6.4045703125,2.2476105844855305,-0.1939523271087557,0.38795850329659876
1782853749378554400,6.414554443359375,2.0432892043799162,-0.06477182044424117,0.384892466789484
1782853749388539400,6.424539306640625,1.7707506126165389,0.1420684106145054,0.360469242542237
1782853749398523400,6.4345234375,1.4100234497904778,0.2837500869337469,0.2943760373011231
1782853749408508200,6.444508056640625,0.915872735902667,0.2519790572069585,0.3071019556224346
1782853749418492200,6.4544921875,0.43388475349545474,0.05942030334845185,0.5701678587067872
1782853749428477000,6.464476806640625,0.049886605197191236,-0.1346612761631608,0.8135594856366515
1782853749438462000,6.4744619140625,-0.3091962975531816,-0.2072936008494347,0.9440643727727234
1782853749448446000,6.484446044921875,-0.582428132277727,-0.24811682882085442,0.9629675184242427
1782853749458431000,6.494430908203125,-1.0150134936124087,-0.35326785979606207,1.0533114408899098
1782853749468415000,6.5044150390625,-1.6624539040267468,-0.44530989141650495,1.1054672331281006
1782853749478400000,6.51439990234375,-2.27125975562036,-0.40987566300705075,0.8890613744098692
1782853749488384000,6.524384033203125,-2.79528947494328,-0.12246486160866915,0.39429987167995423
1782853749498369000,6.534369140625,-3.232001560819149,0.32885625292137266,-0.1442766612485051
1782853749508354000,6.54435400390625,-3.6506396453440186,0.7332138831593096,-0.5825960727231577
1782853749518338000,6.554338134765625,-4.135523933714628,0.9690822749774902,-0.8496220020122826
1782853749528322800,6.56432275390625,-4.584877474498748,0.9414969334375113,-0.9374640977248548
1782853749538307000,6.57430712890625,-4.890166243219375,0.723951549295336,-0.9987680228628217
1782853749548291800,6.584291748046875,-5.19987984264493,0.4897128775708377,-1.1593045487124471
1782853749558275800,6.59427587890625,-5.503210463035106,0.3627731355704367,-1.2268892346203326
1782853749568260900,6.6042607421875,-5.603440769547224,0.2602097830008715,-1.211549115212634
1782853749578246000,6.614245849609375,-5.506723439592123,0.01144998010136187,-1.0526130102969706
1782853749588230000,6.62422998046875,-5.496240039500594,-0.2788695483505726,-0.808992543047294
1782853749598215200,6.634215087890625,-5.240576010170579,-0.3452978672975674,-0.617098755903542
1782853749608199000,6.644198974609375,-4.765498245543241,-0.12781294463835655,-0.5797772524427622
1782853749618184200,6.65418408203125,-4.1535096722602844,0.2519543611571193,-0.7214679157860576
1782853749628168200,6.664168212890625,-3.4080583849489687,0.5878179355572909,-0.9132285780694335
1782853749638153000,6.674153076171875,-2.625178407475352,0.7296175391677766,-1.0647285416349768
1782853749648137200,6.68413720703125,-1.883223145586252,0.7688549592524766,-1.181644829205796
1782853749658122000,6.6941220703125,-1.281960548979044,0.7686797488160431,-1.1557855077408254
1782853749668107000,6.70410693359375,-0.8797370081603526,0.6917533801976591,-1.089917343427241
1782853749678091000,6.714091064453125,-0.5846212584078312,0.5120853433007374,-1.0418043968390673
1782853749688076000,6.724075927734375,-0.3680512221038341,0.31506822179388255,-1.0079726351901888
1782853749698060000,6.73406005859375,-0.10537643722891807,0.18598942193817347,-0.9503408957589418
1782853749708045000,6.744045166015625,0.2703127324074507,0.11535141287427395,-0.8534976744018494
1782853749718029000,6.754029052734375,0.6756015060156584,0.0859570856835693,-0.7123256281051784
1782853749728014000,6.76401416015625,1.1065665726721285,0.07355210641231387,-0.5785926457680761
1782853749737998800,6.773998779296875,1.6086790592193603,0.07790314122866838,-0.39121297504790126
1782853749747983000,6.783983154296875,2.021269680273533,0.09298534035254269,-0.23083843482695518
1782853749757968000,6.7939677734375,2.4292986925005913,0.07117536734361202,-0.10468096577804535
1782853749767952000,6.803951904296875,2.848415500453114,-0.016079283869825302,0.06547390429899096
1782853749777937000,6.81393701171875,3.1715286796778437,-0.12642214786708353,0.3136288731731474
1782853749787921000,6.8239208984375,3.4154029024928807,-0.1692617571622133,0.46129411741402
1782853749797906000,6.833906005859375,3.676567867326736,-0.15041969404816627,0.5094845131525769
1782853749807890000,6.843889892578125,3.8425340900748965,-0.18195764567144215,0.3769838856220245
1782853749817875000,6.853875,3.7950714971542356,-0.38118871690072115,0.17920441970685497
1782853749827860000,6.86385986328125,3.6439556375354525,-0.6451232925783842,-0.045238560195639724
1782853749837844000,6.873843994140625,3.731472592946887,-0.6925994025677442,-0.30233578240023923
1782853749847829000,6.8838291015625,4.208955665150285,-0.6645155369210988,-0.5138171720620245
1782853749857813000,6.89381298828125,7.33242027888298,-0.4154765517540276,-0.3071594579633325
1782853749867798000,6.903798095703125,3.5380034462451935,-0.903315086820349,0.32523857388086613
1782853749877782000,6.913781982421875,2.9279624998986717,-1.3743008328936994,1.2043744012776763
1782853749887767000,6.92376708984375,2.826138202193379,-1.5795362591043114,1.107977973840013
1782853749897751000,6.9337509765625,2.94458279531002,-1.7404019438430667,0.9454853454865515
1782853749907736000,6.943736083984375,2.974741786730289,-1.5778531283229589,0.45719519419521093
1782853749917721000,6.95372119140625,2.914059062230587,-1.084718532675132,0.03126678826538846
1782853749927705000,6.963705078125,2.9507325501114128,-0.7086376603074371,-0.12307567785023711
1782853749937690000,6.973690185546875,3.0626088707536456,-0.5990747311741114,-0.32962592211961744
1782853749947674000,6.983674072265625,2.7376971176743505,-0.7785666443191468,-0.3239807558394968
