time,seconds_elapsed,z,y,x
1782853724240882000,0.0838818359375,2.5097131224304436,-1.2850212517239152,-0.1381401312548667
1782853724250867000,0.093866943359375,2.3324942687839267,-1.17922710053958,-0.16025011012367904
1782853724260851000,0.103850830078125,2.261311777579784,-1.067663718304038,-0.2611995977558195
1782853724270836200,0.113836181640625,2.022662595936656,-1.0196182109288872,-0.25071261746771634
1782853724280820000,0.123820068359375,1.5778315010130404,-1.066474654649943,-0.15810096926577388
1782853724290805000,0.133804931640625,1.197180909577012,-1.0817056876599789,-0.14456855686716735
1782853724300790000,0.1437900390625,0.8960866699367761,-1.0607396181292832,-0.14300189207233488
1782853724310774000,0.15377392578125,0.5243249028772116,-1.027349828094244,-0.12249065363705157
1782853724320759000,0.163759033203125,0.019376900643110276,-1.0172017974369227,-0.07565364526882767
1782853724330743000,0.173742919921875,-0.30549276686012744,-1.0943279264111072,-0.0978217110004276
1782853724340728000,0.18372802734375,-0.43909225901067256,-1.0800849545903504,-0.11418920069448649
1782853724350713000,0.193713134765625,-0.6783908444732427,-0.7919367788281291,-0.08573105837535112
1782853724360697000,0.203697021484375,-0.768160547247529,-0.4401183871880173,0.0031759266223758457
1782853724370682000,0.21368212890625,-0.8136018634736537,-0.26085809084177014,0.10014924063254148
1782853724380666400,0.223666259765625,-0.8804027785927057,-0.249145660411939,0.2520757225144654
1782853724390651400,0.2336513671875,-1.042331124126911,-0.35085261534787715,0.4727040942985564
1782853724400635400,0.243635498046875,-1.217999825721979,-0.39473018938861787,0.605292801971361
1782853724410620400,0.253620361328125,-1.3826234016895294,-0.3272936067145318,0.6288994491387159
1782853724420605400,0.26360546875,-1.5104168379098175,-0.2824432421188801,0.6038515171218664
1782853724430589400,0.27358935546875,-1.7360095541030167,-0.295609086227417,0.567601807611063
1782853724440574500,0.283574462890625,-2.177269804802537,-0.2596715844709426,0.5247727927751838
1782853724450558500,0.293558349609375,-2.5155951662063596,-0.23762970240227876,0.46065183745510874
1782853724460543500,0.30354345703125,-2.6082301952838898,-0.25809220632500945,0.37731483460944143
1782853724470527500,0.313527587890625,-2.7084429661393163,-0.2808426750544458,0.3703997945239767
1782853724480512300,0.32351220703125,-2.663932208761573,-0.2541343355447054,0.36931452003791926
1782853724490497300,0.333497314453125,-2.6660961087971926,-0.08273724685423076,0.2850640190765261
1782853724500481300,0.343481201171875,-2.763758610647917,0.11867021856606005,0.21569025779478251
1782853724510466300,0.35346630859375,-2.8008669828146693,0.23617329304888843,0.11431666299905627
1782853724520450300,0.3634501953125,-2.7241128289580345,0.16896482004225252,0.044234022795595226
1782853724530435600,0.373435546875,-2.7296207787245512,0.07695457179956137,0.06045512628890574
1782853724540420600,0.383420654296875,-2.6038345906734466,0.07346417240053414,0.14559000886939466
1782853724550404600,0.393404541015625,-2.2209558017939326,0.08031140794679523,0.30193200563862915
1782853724560389600,0.4033896484375,-1.9237305125415325,0.1301106271214783,0.37721093584354964
1782853724570373600,0.41337353515625,-1.7936925122648477,0.27247012963704764,0.40013241375833747
1782853724580358400,0.4233583984375,-1.6617957323789596,0.39899354592151937,0.35739703202266243
1782853724590342400,0.43334228515625,-1.4702414793878793,0.4310854781657457,0.26413820849098263
1782853724600327400,0.443327392578125,-1.3939742322653532,0.4275533585168421,0.2448359074540436
1782853724610312400,0.4533125,-1.2082850719153881,0.45825332494601606,0.2846524060683325
1782853724620296400,0.46329638671875,-0.8831319112956524,0.44573717691786585,0.33191326587181536
1782853724630281500,0.473281494140625,-0.683660893830657,0.4689633003350347,0.3580719356095418
1782853724640265500,0.483265380859375,-0.45049803464412685,0.495343723064661,0.37116033056769515
1782853724650250500,0.49325048828125,-0.16144377688765524,0.5686324658330529,0.3294735080368817
1782853724660234500,0.503234375,0.19161212065815925,0.6625074850343168,0.26036606954112645
1782853724670219500,0.513219482421875,0.53812897182405,0.653514761891961,0.206297648614645
1782853724680204300,0.523204345703125,0.8424211307227611,0.530076086815074,0.2189643840946257
1782853724690188300,0.533188232421875,1.0735445930361747,0.32488070035390554,0.25097700402494516
1782853724700173300,0.54317333984375,1.4102145884484052,0.14257913661561905,0.2972053424429148
1782853724710157300,0.5531572265625,1.7139157957166433,0.0040218028619885444,0.30728377846274524
1782853724720142300,0.563142333984375,1.9556255339741706,-0.10021890833526849,0.28206368648307395
1782853724730126300,0.573126220703125,2.229022788393497,-0.15404657930843532,0.2080968435237184
1782853724740111400,0.583111328125,2.573064773878455,-0.20171485086902974,0.13635909305699168
1782853724750096600,0.5930966796875,2.9350054041475055,-0.25187990768142043,0.09242803526334464
1782853724760080400,0.603080322265625,3.1692133884727953,-0.33345790149793025,0.13344050219655035
1782853724770065700,0.613065673828125,3.1974995717585086,-0.4369743900738656,0.18639993896782397
1782853724780049700,0.623049560546875,3.2372271865129467,-0.49354069223068653,0.19681016422528771
1782853724790034400,0.633034423828125,3.428320836254954,-0.4918285545505583,0.1740466898838058
1782853724800018400,0.643018310546875,3.5499165868788953,-0.4595434378217905,0.12300981867294758
1782853724810003500,0.65300341796875,3.5000504399478434,-0.46347303235568105,0.07421243348456918
1782853724819988500,0.662988525390625,3.392486721807718,-0.4962370917078107,0.04780738777033985
1782853724829972500,0.672972412109375,3.1573394108057022,-0.5057920518428087,0.0975192574551329
1782853724839957500,0.68295751953125,2.8378917683511973,-0.4779384878206998,0.1645927789704874
1782853724849941500,0.69294140625,2.529067226719856,-0.43037762215733527,0.1908839890467003
1782853724859926500,0.702926513671875,2.222445163568854,-0.33054362148642535,0.19258118488602338
1782853724869911600,0.71291162109375,2.0357377660870553,-0.20985241848677397,0.19672318006157874
1782853724879895600,0.7228955078125,1.8275801688194273,-0.11666355491876601,0.25849713386408985
1782853724889880300,0.73288037109375,1.437557937926054,-0.06257701381370424,0.38640992214772846
1782853724899864300,0.7428642578125,0.8820341791868209,0.029337445904314516,0.4316187447922304
1782853724909849300,0.752849365234375,0.60045712544322,0.0789482298348099,0.5525314085228369
1782853724919833300,0.762833251953125,0.27476503564119337,-0.17423596537820993,0.8735974094267934
1782853724929818400,0.772818359375,-0.3927905265629291,-0.279675457905978,1.0860238431200384
1782853724939803400,0.782803466796875,-0.8314806345134973,-0.10878346919342875,1.0937313487574458
1782853724949787400,0.792787353515625,-1.057175057515502,0.25284663382172584,0.9727093063682317
1782853724959772400,0.8027724609375,-1.2225018133163452,0.6577093640375882,0.8220736314818262
1782853724969756400,0.81275634765625,-1.5913988385945557,0.8907895133767276,0.723834060395509
1782853724979741700,0.82274169921875,-2.2059335892289877,0.9689994189996272,0.6539317451950162
1782853724989725400,0.832725341796875,-2.7469734800636765,1.0029292341955005,0.3987622213836759
1782853724999710500,0.84271044921875,-3.109688601836562,1.0539435282483696,0.012905887131253256
1782853725009695500,0.852695556640625,-3.477777233341336,1.1603264391060917,-0.3384061350224539
1782853725019679500,0.862679443359375,-4.027507795631886,1.3273245621852576,-0.7595623033154756
1782853725029664500,0.87266455078125,-4.638278225296736,1.4302306637778877,-1.029628221355006
1782853725039648500,0.8826484375,-5.07130606970191,1.2048024904966355,-0.8249210568021983
1782853725049633500,0.892633544921875,-5.3963329735934735,0.4925960317917168,-0.34366792800817636
1782853725059617500,0.902617431640625,-5.572139037832617,-0.12042372943619266,-0.03447344795274548
1782853725069602600,0.9126025390625,-5.563455965161324,-0.3091719668295234,0.12528798360484653
1782853725079587600,0.922587646484375,-5.568667562329769,-0.19042996166888623,0.09287774265906773
1782853725089571600,0.932571533203125,-5.3678235029459,-0.053562042306922374,-0.12461121685444376
1782853725099556400,0.942556396484375,-5.107008082202077,-0.08377543079555035,-0.34867147191651165
1782853725109540400,0.952540283203125,-4.667907055363059,-0.14154394834898412,-0.535841299278289
1782853725119525400,0.962525390625,-4.013496221414208,-0.0760574768293649,-0.6440363010592758
1782853725129510400,0.972510498046875,-3.251266817781329,0.08271138176061213,-0.787007797993347
1782853725139494400,0.982494384765625,-2.5513480321109294,0.21752660637646912,-1.0527599444869906
1782853725149479400,0.9924794921875,-2.0713924323141573,0.31005905186235905,-1.3692159308448433
1782853725159463400,1.00246337890625,-1.6873071902543306,0.37735615300051867,-1.6826831837154923
1782853725169448400,1.012448486328125,-1.210289981997013,0.41353396631889044,-1.947372084891796
1782853725179432400,1.022432373046875,-0.6375064608991146,0.38206400189790873,-2.130042920333892
1782853725189417500,1.03241748046875,-0.0810369457423687,0.23211568822115658,-2.0627545139588412
1782853725199402500,1.042402587890625,0.4379097712278366,0.11042539118155836,-1.8865360695265232
1782853725209386200,1.05238623046875,0.9362819022029638,0.054133996975980696,-1.6303129450090228
1782853725219371500,1.06237158203125,1.3420423849761485,-0.00900419438444078,-1.3782744126997888
1782853725229355500,1.07235546875,1.7950801672309635,-0.19787852410916237,-1.0829800184447318
1782853725239340500,1.082340576171875,2.1648715110003947,-0.358079972785525,-0.8505799603242427
1782853725249324500,1.092324462890625,2.4404899486005305,-0.3945081441357732,-0.7190922726958989
1782853725259309600,1.1023095703125,2.720622648754716,-0.3737393872754648,-0.6813026402667164
1782853725269294600,1.112294677734375,3.0329835478186604,-0.3555741639770567,-0.8660245630197226
1782853725279278600,1.122278564453125,3.3081238465130327,-0.37907888513989746,-1.0182959493491799
1782853725289263400,1.132263427734375,3.454661146169901,-0.40700938685573634,-1.1661275266002864
1782853725299247600,1.14224755859375,3.562333000859618,-0.42899767557363955,-1.3083607723876833
1782853725309232400,1.152232421875,3.7109564591407773,-0.4798993030322715,-1.3418234815284609
1782853725319217400,1.162217529296875,3.801038881126046,-0.5416544060038402,-1.3621030300997197
1782853725329201400,1.172201416015625,3.7856665399491787,-0.5975686739927157,-1.3510278015948831
1782853725339186400,1.1821865234375,3.743324358782172,-0.6287825447607786,-1.2680712859667838
1782853725349170400,1.19217041015625,3.752162914276123,-0.6738472827594727,-1.1771148576259611
1782853725359155500,1.202155517578125,3.6078602418035266,-0.751852971047163,-1.0390743142880499
1782853725369139500,1.212139404296875,3.2556238439470526,-0.738845824631676,-0.9800066237695515
1782853725379124500,1.22212451171875,3.0537311522930857,-0.5829837933991104,-1.1339806492984295
1782853725389109500,1.232109619140625,2.9674919617325064,-0.3811065915752202,-1.2798643073521554
1782853725399093500,1.242093505859375,2.6663831090450287,-0.22798384911343453,-1.2684005179211497
1782853725409078500,1.25207861328125,2.209725967249274,-0.1932617875613272,-1.1480078594766556
1782853725419062500,1.2620625,1.7718588661193846,-0.2503638770952821,-0.9066312986962497
1782853725429047600,1.272047607421875,1.4073638751924038,-0.3395359062373638,-0.48588659728094935
1782853725439031600,1.282031494140625,1.0070581506937741,-0.4772177723307162,-0.07162585105746984
1782853725449016600,1.2920166015625,0.49215340259075163,-0.5270389110762626,0.21970139313228426
1782853725459001600,1.302001708984375,-0.05640694687664508,-0.45412703879624605,0.37086598726361986
1782853725468985600,1.311985595703125,-0.45986675149202344,-0.31123379473015667,0.4176768382772803
1782853725478970600,1.321970703125,-0.8623428057670592,-0.13950491680204868,0.42781354382298886
1782853725488954600,1.33195458984375,-1.3949825325250624,0.05260857750698924,0.4624022613190114
1782853725498939400,1.341939453125,-1.858519496962428,0.27698607269152997,0.43969986951500173
1782853725508923600,1.351923583984375,-2.096057502493262,0.46054713497161864,0.42138555660210547
1782853725518908400,1.361908447265625,-2.3109201503574845,0.5033458277344703,0.4150298308998346
1782853725528893400,1.3718935546875,-2.5757880613625046,0.460856054790318,0.47598881505765017
1782853725538877400,1.38187744140625,-2.81554374294281,0.29765155184045433,0.6092098292846232
1782853725548862700,1.39186279296875,-2.9914719722568988,0.004932487966120243,0.7745826892495155
1782853725558846500,1.401846435546875,-3.279275353169441,-0.21946897261589765,0.8873799241289496
1782853725568831700,1.411831787109375,-3.4759804130524397,-0.27639709382243455,0.872964079959318
1782853725578815700,1.421815673828125,-3.526161032760143,-0.3146212452113628,0.8197305754870176
1782853725588800800,1.43180078125,-3.6033845576941963,-0.3697412210173905,0.8928281795974821
1782853725598785500,1.44178564453125,-3.7791888683676715,-0.4866356620825827,1.0737485181104391
1782853725608769500,1.45176953125,-3.7446424556434152,-0.4472959506671875,1.2110615508913993
1782853725618754600,1.461754638671875,-3.4946354291617867,-0.17810206622183322,1.251945057682693
1782853725628738600,1.471738525390625,-3.4079695376217365,0.06115056120716035,1.2714496763586998
1782853725638723600,1.4817236328125,-3.3974271008193493,0.1231882074471563,1.319516080391407
1782853725648707600,1.49170751953125,-3.0955531089782715,0.11215462612695991,1.3511173795744775
1782853725658692600,1.501692626953125,-2.6557787129223347,0.1404313474645838,1.268619275238365
1782853725668677600,1.511677734375,-2.2521733623564244,0.19814152242690325,1.232474341276288
1782853725678661600,1.52166162109375,-1.9416122061908243,0.3269009176025167,1.2430864823140204
1782853725688646700,1.531646728515625,-1.6726777763992546,0.40010611027330156,1.2096413818951695
1782853725698630700,1.541630615234375,-1.4724100555986166,0.3139611373348161,1.229913843138516
1782853725708615400,1.551615478515625,-1.3882757283627987,0.09717866385653615,1.3534122125133872
1782853725718600400,1.561600341796875,-1.324277011182904,-0.14862521184682845,1.4462149993732571
1782853725728584400,1.57158447265625,-1.2005103462606668,-0.3262292288860306,1.3706792813956736
1782853725738569500,1.581569580078125,-0.9525333643019199,-0.31643136337324973,1.1179670145433396
1782853725748553500,1.591553466796875,-0.5711971286892891,-0.18484350330606103,0.8259872977942228
1782853725758538500,1.60153857421875,-0.11930091768503188,-0.08631338830795139,0.629180238841474
1782853725768522500,1.6115224609375,0.3896797010660171,-0.08913023582696915,0.5767779975615441
1782853725778507500,1.621507568359375,0.9081354196488857,-0.11728884721025824,0.5947407205577939
1782853725788492800,1.631492919921875,1.427926770749688,-0.12592914018575102,0.6020525779411197
1782853725798476800,1.641476806640625,1.956512253680825,-0.11024864637516438,0.5609634655751288
1782853725808461600,1.651461669921875,2.4394033224076033,-0.06317972894720733,0.5142739028535783
1782853725818445600,1.661445556640625,2.7935779948502777,-0.03454929880108684,0.49506114326361567
1782853725828430600,1.6714306640625,3.119884417158365,-0.11177147202827035,0.4866560838161036
1782853725838414600,1.68141455078125,3.4540380458354947,-0.26280754440911114,0.5168343279261142
1782853725848399600,1.691399658203125,3.72803560423553,-0.3899025500364601,0.5059384745761751
1782853725858384600,1.701384521484375,4.025078522658347,-0.4557154770314693,0.42515013330001383
1782853725868368600,1.71136865234375,4.305172644367814,-0.4773681405868381,0.35210984886735675
1782853725878353700,1.721353759765625,4.516041838681698,-0.48131300575509667,0.29980796268936244
1782853725888337700,1.731337646484375,4.570921429860592,-0.4729113073084503,0.2567111272301525
1782853725898322700,1.74132275390625,4.540813291844725,-0.46809141287133094,0.26085889455936845
1782853725908306700,1.751306640625,4.467811768519878,-0.4862734777066856,0.29447799983825534
1782853725918291500,1.76129150390625,4.3076679683148855,-0.4370612646397203,0.3056653469480574
1782853725928276500,1.7712763671875,4.011252826401591,-0.33220804756730793,0.38151393026709557
1782853725938260500,1.781260498046875,3.650029404491186,-0.24755203454494476,0.5765212828541174
1782853725948245500,1.79124560546875,3.210003664022684,-0.2936690580755472,0.6893678733006119
1782853725958229500,1.8012294921875,2.799163686028123,-0.41639081705473363,0.7472215118542314
1782853725968214500,1.811214599609375,2.392757891088724,-0.46536790619157253,0.7821263095621019
1782853725978198500,1.821198486328125,1.9113485853523016,-0.3344646673876792,0.8541160254959016
1782853725988183600,1.83118359375,1.3765426204711197,-0.17259572389051317,0.9939765508025884
1782853725998168600,1.84116845703125,0.8955851501554251,-0.11763444577753543,1.052419825812429
1782853726008152600,1.851152587890625,0.4359831870794296,-0.06027838148251176,1.176919627314806
1782853726018137600,1.8611376953125,0.0302770648419857,-0.005558510909974575,1.4083090470880268
1782853726028121300,1.871121337890625,-0.49461014809310433,0.07540230085626244,1.6685019520193338
1782853726038106600,1.881106689453125,-1.133916351890564,0.1373603059887886,1.8403312215819954
1782853726048091600,1.891091552734375,-1.7552946848094462,0.21001016633175312,1.895744042854756
1782853726058075600,1.90107568359375,-2.320820782124996,0.35508601513393223,1.785526010813564
1782853726068060700,1.911060791015625,-2.8871611184328794,0.545144330478832,1.5670980716831981
1782853726078044700,1.921044677734375,-3.4977900938004254,0.7089731758721173,1.3196801849119364
1782853726088029700,1.93102978515625,-4.069145627921819,0.8462884006101637,1.1460840518072246
1782853726098013700,1.941013671875,-4.74125636921227,0.9013231092855334,1.011503878056258
1782853726107998700,1.950998779296875,-5.497148971039056,0.7396866593699902,0.8517620827808976
1782853726117983500,1.9609833984375,-6.162981947234273,0.3975584716171026,0.6669043317537754
1782853726127967500,1.970967529296875,-6.69665803130269,0.020443835754878816,0.4565613167384639
1782853726137952500,1.980952392578125,-7.020145304536819,-0.39240901643205434,0.3248097540095448
1782853726147936500,1.9909365234375,-7.127737664249539,-0.6666788524348288,0.08304295180253685
1782853726157921500,2.000921630859375,-6.872419671878219,-0.5580958377169445,-0.28524964130911973
1782853726167905500,2.010905517578125,-6.083852296417951,-0.11410351343872024,-0.48165016528759147
1782853726177890600,2.020890625,-5.086297887128591,0.19948279923433437,-0.43320027836263175
1782853726187875600,2.03087548828125,-4.186539250680804,0.14670891163041813,-0.255266810173355
1782853726197859600,2.040859619140625,-3.451797573432326,-0.06747382767824456,0.06539638208337127
1782853726207844600,2.0508447265625,-2.8624270746707916,-0.036742954654153434,0.19420516935866325
1782853726217828600,2.06082861328125,-1.952215433269739,0.29044994989857076,-0.07409794025942683
1782853726227813400,2.0708134765625,-1.0319260499686003,0.5911294347254559,-0.3820550514064729
1782853726237797400,2.08079736328125,-0.4513853388726711,0.7414204243600369,-0.5768248689105734
1782853726247782400,2.090782470703125,0.0050064299851655955,0.7111511044330895,-0.7569451065544038
1782853726257767700,2.100767578125,0.35732232281863685,0.5472282971460372,-0.8959991377837956
1782853726267751700,2.110751708984375,0.6017044951558113,0.30084574477188286,-0.9938993939131497
1782853726277736700,2.12073681640625,0.785066673862934,0.08232413600869476,-0.9917345440294593
1782853726287720700,2.130720703125,0.9477017063617705,-0.09458952414616942,-0.9004618162810802
1782853726297705700,2.140705810546875,1.0782850655615328,-0.2581383104890585,-0.8016196761917322
1782853726307689700,2.150689697265625,1.2866980988949537,-0.3120566554203629,-0.7456812236096709
1782853726317674800,2.1606748046875,1.659588577723503,-0.14036949774213134,-0.6698827630426735
1782853726327659500,2.170659423828125,1.992491914078593,0.09258410260789096,-0.5474851214513182
1782853726337643500,2.1806435546875,2.226365551882982,0.24452106935121118,-0.4599408031089231
1782853726347628500,2.190628662109375,2.4588287383675573,0.32222302545197307,-0.3612954277006909
1782853726357612500,2.200612548828125,2.8107833966732025,0.3660225658204406,-0.23390118339844046
1782853726367597600,2.21059765625,3.075250910183787,0.38035686918646094,-0.1343737644586712
1782853726377581600,2.22058154296875,3.3218443288296458,0.3338307533983141,-0.05482786099165678
1782853726387570000,2.23056982421875,3.580381283247471,0.2241369644269347,0.015920476578921077
1782853726397555000,2.240554931640625,3.834230372110009,0.11087766499370336,0.018244535612314938
1782853726407539000,2.2505390625,4.084873942929506,-0.0004105535622686147,0.0201264038361609
1782853726417524000,2.26052392578125,4.291246410346031,-0.06329363765046,0.038225101236999036
1782853726427508000,2.270508056640625,4.374854083359241,-0.0636379210434854,0.04498297799937427
1782853726437492700,2.28049267578125,4.399356071931123,-0.06645933513976633,-0.0003635726153850555
1782853726447477800,2.290477783203125,4.499687500730157,-0.0383531845960766,-0.11192403224147855
1782853726457461800,2.300461669921875,4.578793770670891,-0.020199103746190664,-0.20777911934405563
1782853726467446800,2.31044677734375,4.499025821951031,-0.08589885269030928,-0.24209720320515332
1782853726477430800,2.3204306640625,4.2819893371790645,-0.12761559543535111,-0.23206885340474545
1782853726487415800,2.330415771484375,3.975163275888562,-0.14122969476804137,-0.2525086340390146
1782853726497399800,2.34039990234375,3.7056273730725047,-0.15518573940619826,-0.2819880456972867
1782853726507384800,2.350384765625,3.259086551621556,-0.21496150512881576,-0.27257278629392384
1782853726517369900,2.360369873046875,2.713713015496731,-0.29161563267707824,-0.1828944881301373
1782853726527353900,2.370353759765625,2.2606635428041217,-0.364294353788346,-0.13667736522592602
1782853726537338600,2.380338623046875,1.8914467840522526,-0.448800583076477,-0.04028517557196319
1782853726547322600,2.390322509765625,1.550407487514615,-0.5416795039124787,0.10860789343081415
1782853726557307600,2.4003076171875,1.1881465392500161,-0.6676828418456018,0.22523718075379728
1782853726567291600,2.410291748046875,0.903000394847989,-0.7938302644245326,0.2706357538167387
1782853726577277000,2.42027685546875,0.7030833871811628,-0.7196737258456647,0.16855127080529927
1782853726587262000,2.430261962890625,0.6235001473784446,-0.48578605951592324,0.03105199473723769
1782853726597246000,2.440245849609375,0.5464537325769663,-0.3784259011238813,-0.09070135760121047
1782853726607231000,2.45023095703125,0.45725744577646255,-0.36968627595975995,-0.22015454372726379
1782853726617215000,2.460215087890625,0.15042553926706312,-0.30574279609844085,-0.29516733380928634
1782853726627200000,2.470199951171875,-0.3477952005386352,-0.2429259821794927,-0.19108773145787417
1782853726637184000,2.48018408203125,-0.9498545004814862,-0.4062747159056365,0.02271430143751204
1782853726647168800,2.490168701171875,-1.5560481237500905,-0.7012174471788108,0.33251462929844855
1782853726657153800,2.50015380859375,-2.1806781519412994,-1.005425434925407,0.6471580132763832
1782853726667137800,2.5101376953125,-2.9475457367688414,-1.1876026416316627,0.8558921683229506
1782853726677122800,2.520122802734375,-3.5872535071045157,-1.2105334353640675,0.9262766410171985
1782853726687106800,2.53010693359375,-3.927061800542474,-1.1870480034235864,0.9174362588923424
1782853726697091800,2.540091796875,-4.197077011308074,-1.1301230240222067,0.8354499765358865
1782853726707075800,2.550075927734375,-4.348196378058195,-0.9357361048884689,0.6441470679573714
1782853726717060900,2.560060791015625,-4.314769324752688,-0.6174351482510566,0.4445420488491654
1782853726727046000,2.5700458984375,-4.216193799710274,-0.4170901244305074,0.4241020490191877
1782853726737030000,2.58002978515625,-4.08296489443779,-0.4513403306871652,0.6005249299824238
1782853726747014700,2.5900146484375,-3.8525206465601918,-0.5720505306482315,0.8418753334082663
1782853726756998700,2.59999853515625,-3.5020044966250654,-0.6238086288057267,1.1485983727157116
1782853726766983700,2.609983642578125,-3.1004993332087993,-0.5872517530418933,1.3279860948339104
1782853726776967700,2.6199677734375,-2.8404864610195157,-0.3432672017201781,1.350613229444623
1782853726786952700,2.62995263671875,-2.303638761177659,0.08726458808556199,1.2283318346440792
1782853726796938000,2.63993798828125,-1.9440531696021555,0.42471850041709835,1.0779112638130783
1782853726806921700,2.649921630859375,-1.680534335118532,0.576840687534213,1.0196423955220728
1782853726816907000,2.659906982421875,-1.5484697974503039,0.5827776763677597,1.055458462855965
1782853726826891000,2.66989111328125,-1.643456358090043,0.4277754037696868,1.1760186598870903
1782853726836876000,2.6798759765625,-1.7904869942218065,0.16163082389235495,1.2524784339070318
1782853726846860000,2.689860107421875,-1.8424942448347805,-0.05814115025810897,1.2503629030577839
1782853726856844800,2.6998447265625,-1.6696593053609132,-0.13301241297759114,1.13961193318367
1782853726866829800,2.709829833984375,-1.3594529539823532,-0.053672918802872296,0.9794086578764021
1782853726876813800,2.719813720703125,-1.1435761606395245,0.015982655094936488,0.90824852463454
1782853726886798800,2.729798828125,-0.9592910218685865,-0.03273446793146431,0.8377168985545634
1782853726896782800,2.739782958984375,-0.601100684043765,-0.028103374064713714,0.6642671881832182
1782853726906768000,2.749767822265625,-0.18255027780234812,0.15312434989698231,0.5238635689757764
1782853726916752000,2.759751953125,0.20298925471901894,0.33008952104337513,0.4576557974442839
1782853726926737000,2.76973681640625,0.5860317097276448,0.3757072167497128,0.3781097478467971
1782853726936722000,2.779721923828125,1.061391798427701,0.28472762672901153,0.2632230846737511
1782853726946706000,2.789705810546875,1.5867214944332837,0.16240370796099304,0.16169702099636196
1782853726956690700,2.799690673828125,2.1454987020105123,0.10119703265242277,0.1269524918841198
1782853726966674700,2.8096748046875,2.66600726146996,0.05874656880535185,0.12968538744673133
1782853726976659700,2.81965966796875,3.163930479633808,0.03264116362482309,0.11428528148010372
1782853726986643700,2.829643798828125,3.6086481773108243,0.013819120385497808,0.04422324567325413
1782853726996628700,2.839628662109375,3.9501737960606813,0.033729762579128145,-0.010973119837231933
1782853727006613800,2.84961376953125,4.219674043041468,0.03048829643987119,0.020848471033014356
1782853727016597800,2.85959765625,4.324802642989158,-0.018510639202594756,0.032626550577580925
1782853727026582800,2.869582763671875,4.278237291169166,-0.010826514440774917,0.01785429418571293
1782853727036566800,2.87956689453125,4.20189697881043,0.017238500374928117,0.020642171338573097
1782853727046552000,2.889552001953125,4.088511422649026,0.044253421615809196,-0.014610416893661021
1782853727056535800,2.899535888671875,3.9635540866374965,0.08868877566978335,-0.09633033993151038
1782853727066520800,2.909520751953125,3.7217917414098975,0.06806611274927854,-0.06691650432273745
1782853727076505900,2.919505859375,3.1876386874794957,0.10702069730460644,0.01266973115466535
1782853727086489900,2.92948974609375,2.691994520163536,0.095228114310652,0.19109050793685017
1782853727096475000,2.939474853515625,2.235064406645298,-0.035694559846073386,0.31863486476689573
1782853727106459000,2.949458984375,1.6597896532535552,-0.18067630062401294,0.3194978382717818
1782853727116444000,2.95944384765625,1.0992460205256938,-0.19763751842752098,0.3596616890190169
1782853727126428000,2.969427978515625,0.5591466254115104,-0.06096314887627959,0.47058878264501686
1782853727136413000,2.979412841796875,0.02333060670495033,0.11355170650854707,0.6121147204132751
1782853727146398000,2.98939794921875,-0.4960585933357477,0.27698461138680575,0.6831959797326475
1782853727156382000,2.9993818359375,-0.9153723851650952,0.4256482555478811,0.7176340367116033
1782853727166366700,3.00936669921875,-1.258974225667119,0.6527171817734837,0.7181525076277554
1782853727176350700,3.019350830078125,-1.5614105275660752,1.0054900245942175,0.7209986177738755
1782853727186335700,3.029335693359375,-1.897287326774001,1.3154337795138358,0.6764752931755036
1782853727196319700,3.03931982421875,-2.1922727281451224,1.513972046173364,0.5311001691658049
1782853727206304800,3.0493046875,-2.44496680175364,1.58295644281134,0.32145328318849203
1782853727216289800,3.059289794921875,-2.7071862440764902,1.6523900445215403,0.06331378538934514
1782853727226273800,3.069273681640625,-2.9417583855390546,1.683532494021207,-0.11203784961318597
1782853727236258800,3.0792587890625,-3.180571233311295,1.5487481760002673,-0.12618516077343372
1782853727246242800,3.089242919921875,-3.4656969194471836,1.2281328049406408,-0.028130316870566455
1782853727256227800,3.099227783203125,-3.722556880563497,0.7274797964867205,0.08562023667832835
1782853727266211800,3.1092119140625,-3.818589735385775,0.27102226891629394,0.13533444445068016
1782853727276196600,3.119196533203125,-3.8651714538186788,0.10798545068353414,-0.012712236855830996
1782853727286182000,3.129181884765625,-3.7796196610003707,0.22374241215139626,-0.3770365656573325
1782853727296166000,3.139165771484375,-3.5400749918222427,0.46792592011131345,-0.7322348089940846
1782853727306151000,3.14915087890625,-3.1685207300335168,0.6574971095263957,-0.8510329647887498
1782853727316135000,3.159135009765625,-2.7941134169012307,0.5659321938984095,-0.8378447627179324
1782853727326120000,3.169119873046875,-2.35290986482501,0.3214514565575868,-0.8192747214782983
1782853727336104000,3.17910400390625,-1.7330962970048187,0.20976758974753318,-0.7304900111533701
1782853727346089000,3.1890888671875,-1.1108972953528164,0.26887890021204947,-0.7768778144493699
1782853727356074000,3.199073974609375,-0.42530221858918665,0.47141887679360805,-0.9751359489932656
1782853727366058000,3.20905810546875,0.22986849381625651,0.6089665951132774,-1.1305381076291203
1782853727376042800,3.219042724609375,0.6019143385142087,0.5830366195648908,-1.1761541959002613
1782853727386023200,3.229023193359375,0.6504401767522097,0.4251134910840541,-1.2056077424649148
1782853727396008000,3.239008056640625,0.46275896580219267,0.3080973964005709,-1.3280878016427158
1782853727405992000,3.248991943359375,0.12179857971966265,0.13468107684217392,-1.3465049173429608
1782853727415977000,3.25897705078125,-0.3578437163442373,-0.3885105842214078,-1.053960625513643
1782853727425962000,3.2689619140625,-0.6810773070782422,-0.9616833968978374,-0.7781300064675509
1782853727435946000,3.278946044921875,-0.6831529443085194,-1.1982361177183687,-0.6409959104500711
1782853727445931000,3.288930908203125,-0.46287236304879187,-1.121055847404152,-0.4967838754029944
1782853727455915000,3.2989150390625,-0.286218742069602,-0.8738002385225146,-0.3901656214194372
1782853727465900000,3.308900146484375,0.01820142712295055,-0.5036513134870678,-0.3144550948642194
1782853727475884000,3.318884033203125,0.5341928014189005,-0.2181113291955553,-0.2902624645024538
1782853727485869000,3.328869140625,1.069597901237011,-0.045796979529689995,-0.35695882326848805
1782853727495853800,3.338853759765625,1.5240204158484936,0.017926391307543962,-0.3152097126238048
1782853727505837800,3.348837890625,1.7484686381816863,-0.13467285700310022,-0.09219477449674159
1782853727515822800,3.35882275390625,1.8384627973616121,-0.43511853307411075,0.2419524975048378
1782853727525806800,3.368806884765625,2.028909965893626,-0.657633376191929,0.4135296920025721
1782853727535792000,3.378792236328125,2.413347674652934,-0.8557878311656415,0.3625421398261562
1782853727545775900,3.38877587890625,2.868951508003473,-1.1186359267808497,0.23692900678701698
1782853727555761200,3.39876123046875,3.1578198877990244,-1.2891615663990377,0.042224546136707064
1782853727565746200,3.40874609375,3.464571130287647,-1.3212442193582654,-0.13653583786338566
1782853727575730200,3.418730224609375,3.71427128277719,-1.3194380467191338,-0.24170455062575638
1782853727585715000,3.42871484375,3.757238902366161,-1.4419506199270486,-0.25993929549641903
1782853727595699000,3.438698974609375,3.5757302425712343,-1.6457352628074586,-0.26252090948745604
1782853727605684000,3.44868408203125,3.4171278265893457,-1.7963637773007153,-0.23260880550034344
1782853727615668000,3.45866796875,3.202286806035042,-1.9332254861176013,-0.1979880854308605
1782853727625653000,3.468653076171875,2.825163219681382,-2.0836624235615133,-0.12945735084451734
1782853727635637000,3.478636962890625,2.324905421090126,-2.171541051892191,-0.059338031892478466
1782853727645622000,3.4886220703125,1.864150196325779,-2.2281796155676243,0.015170608059689401
1782853727655607000,3.49860693359375,1.4901912114828824,-2.1698402393236753,0.10090331040285527
1782853727665591000,3.508591064453125,1.0477595789164305,-2.0004383430384096,0.16114135987497866
1782853727675576000,3.518576171875,0.6205237619161605,-1.784132510628551,0.1375028562646359
1782853727685560000,3.52856005859375,0.31949966490268705,-1.6375101630367337,0.05608063753172755
1782853727695544800,3.538544921875,0.10947978089451789,-1.706036440643668,0.1198133972518146
1782853727705529000,3.548529052734375,-0.18726853849589822,-1.9194485974386333,0.3853782775450498
1782853727715513900,3.558513916015625,-0.4739280100703239,-2.1212211698442696,0.5837471789870411
1782853727725499000,3.568498779296875,-0.7244803954750298,-2.2251298726081847,0.7007309788361191
1782853727735483000,3.57848291015625,-0.9832581729114055,-2.2811482585586607,0.746834266102314
1782853727745468000,3.588468017578125,-1.2645856358081102,-2.2767769116066394,0.7014793860506265
1782853727755452000,3.598451904296875,-1.590128088006377,-2.2334655931465326,0.682614599648118
1782853727765437000,3.60843701171875,-1.928608347710967,-2.1298960592091083,0.6157929340019822
1782853727775421000,3.6184208984375,-2.3063830914497374,-1.9792031011775135,0.5095885215163231
1782853727785406200,3.62840625,-2.645190683412552,-1.7964292437523601,0.35327706601582465
1782853727795391000,3.638390869140625,-2.828293334400654,-1.5419329430274664,0.22913952195458112
1782853727805375000,3.648375,-2.982922755098343,-1.3766677081555128,0.2337832561071962
1782853727815360000,3.658360107421875,-3.124796739119291,-1.2375278252735733,0.21199330297298727
1782853727825344000,3.668343994140625,-3.1574282581329345,-1.0120083935122937,0.13136523029245437
1782853727835329000,3.6783291015625,-3.1580566191643475,-0.7841594958901404,0.11340849864557384
1782853727845313000,3.68831298828125,-3.2005934461206196,-0.6357672890815883,0.1973406543727964
1782853727855298000,3.698298095703125,-3.16099851783514,-0.5791555403478443,0.31840909318700433
1782853727865282000,3.708281982421875,-3.0126871942430733,-0.5150115694783628,0.34517252388484776
1782853727875267000,3.71826708984375,-2.796357980957627,-0.21046521662287412,0.23960129473619163
1782853727885252000,3.728252197265625,-2.2894413089990615,0.3290610547784716,0.06299085531160235
1782853727895236000,3.738236083984375,-1.6114298192322254,0.9620993572875857,-0.12984890744537114
1782853727905220900,3.748220947265625,-0.9955126743286847,1.5285659503236413,-0.3214562788631767
1782853727915205000,3.758205078125,-0.3383750457644462,1.9644138205856083,-0.39360812655612826
1782853727925190000,3.76818994140625,0.237415255934,2.373911297930032,-0.4007152551475912
1782853727935174000,3.778173828125,0.562196660631895,2.690660641211271,-0.2820168334003538
1782853727945159000,3.788158935546875,0.6499573616713286,2.8495921430170537,-0.1430241769693792
1782853727955144000,3.79814404296875,0.6025947219938039,2.844160181096196,-0.015465060961619018
1782853727965128000,3.8081279296875,0.5292009844809771,2.5811630323991177,0.17869382156990468
1782853727975113000,3.818113037109375,0.4964455468267202,2.176025796090811,0.35445582747161386
1782853727985097000,3.828096923828125,0.5157470441460609,1.8990707030594347,0.43496889547035095
1782853727995082000,3.83808203125,0.5718541312932968,1.8437135574966668,0.4906242202620953
1782853728005066000,3.84806591796875,0.46693888183534143,1.837493660068512,0.6382578637883066
1782853728015051000,3.858051025390625,0.31326456990540025,1.7661802359610794,0.6806048672609031
1782853728025036000,3.8680361328125,0.3219669317990541,1.7395725072816013,0.5163520243018865
1782853728035020000,3.87802001953125,0.4181248743057251,1.7457890437088905,0.29830358600839973
1782853728045005000,3.888005126953125,0.5354653055727482,1.674118915118277,0.13160608984362332
1782853728054989000,3.897989013671875,0.7277461192727088,1.4394839375525712,-0.015118768274597823
1782853728064974000,3.90797412109375,0.971229881465435,1.135270469913259,-0.1102004781181924
1782853728074958000,3.9179580078125,1.315851128143072,0.8515307582430541,-0.1400828993530944
1782853728084943000,3.927943115234375,1.6581781264036892,0.5748283978637307,-0.09315787477470003
1782853728094927000,3.937927001953125,1.9260498953998089,0.32163017412535844,-0.013286045555258169
1782853728104912100,3.947912109375,2.1359306631982324,0.09333667454086243,0.0273497152863536
1782853728114897000,3.95789697265625,2.424579262763262,-0.17238478455357253,-0.03137460515457205
1782853728124881200,3.967881103515625,2.768996511301398,-0.39643867380693554,-0.12164563591396435
1782853728134866000,3.977865966796875,3.0495062280744314,-0.5797669502444565,-0.21173161982949823
1782853728144850000,3.987849853515625,3.1500089217871428,-0.7496966697961092,-0.22948623476671054
1782853728154835000,3.9978349609375,3.119063748425245,-0.8718137408804147,-0.25601172852283344
1782853728164818200,4.007818115234375,3.12757789427042,-0.9939693173442036,-0.19017582251103593
1782853728174803000,4.017802978515625,3.176205439317226,-1.1389603374071418,-0.054441017098538574
1782853728184787000,4.027786865234375,3.093191056022048,-1.3096252393655479,0.15655227851904926
1782853728194772000,4.03777197265625,2.806903340369463,-1.4181199547454715,0.3669238985743373
1782853728204757000,4.047757080078125,2.392386135166883,-1.5136178259082138,0.5432505526214838
1782853728214741000,4.057740966796875,1.9179133506953716,-1.519319690811634,0.5781286449855193
1782853728224726000,4.06772607421875,1.462957167598605,-1.4123086381182073,0.5751661053854972
1782853728234710000,4.0777099609375,0.8628168530195951,-1.309823830677569,0.6380924440935254
1782853728244695000,4.087695068359375,0.21927637265324593,-1.2532517563670873,0.8029148305688053
1782853728254679000,4.097678955078125,-0.3351280266672373,-1.1994816608000547,0.9979758495718241
1782853728264663800,4.107663818359375,-0.7823428018569946,-1.0216721477840096,1.103081287839636
1782853728274648800,4.11764892578125,-1.2264730550348757,-0.7854948361471294,1.0457263195231556
1782853728284632800,4.1276328125,-1.7076625805407761,-0.560903259820491,0.8791389692019671
1782853728294617900,4.137617919921875,-2.212984092262387,-0.3635112405866384,0.658233972433582
1782853728304601900,4.147601806640625,-2.6849966241002083,-0.2948173513278365,0.35041327408254147
1782853728314587000,4.1575869140625,-3.012738632169366,-0.2572219262965023,-0.08546278109429403
1782853728324571000,4.16757080078125,-3.206474905374646,-0.2245670264072716,-0.33296566100157793
1782853728334556200,4.17755615234375,-3.4793460900932547,-0.16211758449599145,-0.2912075998654589
1782853728344540000,4.187539794921875,-3.8265941781431434,-0.21377660619318484,-0.02219400389045477
1782853728354525200,4.197525146484375,-4.038442446622252,-0.4326018740780651,0.17513949008919297
1782853728364510000,4.207510009765625,-4.002347050890326,-0.5120909327913076,0.02088690563054988
1782853728374494000,4.217493896484375,-3.918043796828389,-0.2847773841548711,-0.24132585350647567
1782853728384479000,4.22747900390625,-4.009328580340743,0.2205212581478059,-0.6068294734867289
1782853728394463700,4.237463623046875,-4.020471905645728,0.6524887067798525,-0.9805482563655823
1782853728404448800,4.24744873046875,-4.112793046468496,0.8836507475379853,-1.3003677278071641
1782853728414432800,4.257432861328125,-4.261699413344264,0.8068878989182412,-1.3739892827264963
1782853728424417800,4.267417724609375,-4.269513301965594,0.5734039180185645,-1.3646227578356862
1782853728434402800,4.27740283203125,-4.156152880245447,0.3805642283268273,-1.340731448508054
1782853728444386800,4.28738671875,-4.217433570638299,0.4656560024179518,-1.3908001322738826
1782853728454371800,4.297371826171875,-4.285332802388072,0.8585069539312272,-1.4923596415631473
1782853728464355800,4.30735595703125,-4.2457133241832254,1.1294617105692624,-1.694149018973112
1782853728474340900,4.3173408203125,-4.015034098505973,1.0451942584730685,-1.8688124890483915
1782853728484324900,4.327324951171875,-3.537313710415363,0.8353230622205883,-1.9094750465653836
1782853728494310000,4.337309814453125,-2.9043711964309216,0.657536710884422,-1.9202508537322283
1782853728504294000,4.3472939453125,-2.1941297541886566,0.4529057899056002,-1.8424454372569918
1782853728514279000,4.35727880859375,-1.4551257433205842,0.30074962745364753,-1.7857631805703043
1782853728524264000,4.367263916015625,-0.555779194805026,0.18166027016006409,-1.7192613945282995
1782853728534250800,4.377250732421875,1.144513149228692,0.06998020274229347,-1.0408849439065904
1782853728544236000,4.387236083984375,1.7183979095667599,-0.25645463171843436,-0.8907397559508681
1782853728554220800,4.397220703125,2.371695229315758,-0.6647484688941389,-0.660037222463265
1782853728564205000,4.407205078125,3.063154814198613,-0.8076407631121575,-0.4963062479538843
1782853728574189800,4.41718994140625,3.7034324933767317,-0.848820549436286,-0.35576738499421623
1782853728584173800,4.427173828125,4.250274933010339,-0.9094210755452513,-0.20446597620807586
1782853728594158800,4.437158935546875,4.57278956182003,-0.9821573720626533,-0.09296037030806764
1782853728604142800,4.447142822265625,4.539155587765574,-1.143889318241924,-0.06431488872328772
1782853728614127900,4.4571279296875,4.0497102750897405,-1.4626682676546274,-0.10299964336128904
1782853728624111900,4.46711181640625,3.689454821428656,-1.6807419865198432,-0.09960158015452325
1782853728634097000,4.477096923828125,3.7474265334039925,-1.6227292118817567,-0.026411913846433162
1782853728644082000,4.48708203125,3.8488422503083943,-1.4102353389754891,-0.008002999718952923
1782853728654066000,4.49706591796875,3.6968414245486256,-1.2895821298986672,0.038806572653073815
1782853728664051000,4.507051025390625,3.4177883363246915,-1.2395761361055075,0.01754427838847041
1782853728674035000,4.517034912109375,3.1647914803773163,-1.2788891787096857,0.05226897028908133
1782853728684019700,4.527019775390625,2.931875289428234,-1.1747064813099801,0.12873082666825503
1782853728694003700,4.537003662109375,2.436993923178315,-0.9960065222602337,0.3020331644581631
1782853728703988700,4.54698876953125,1.9386182850718496,-0.9517378300100564,0.4521566155061125
1782853728713972700,4.55697265625,1.7209756511002778,-1.0597315370652824,0.4904640612643212
1782853728723957800,4.566957763671875,1.4968307956278324,-1.102779747609794,0.45412868276406076
1782853728733942800,4.57694287109375,0.9480214398354291,-0.9913874841574579,0.3463920192098245
1782853728743926800,4.5869267578125,0.3981435780286789,-0.7817593028806149,0.13416823194921015
1782853728753911800,4.596911865234375,0.13058569728732108,-0.6790555919922888,-0.021228885185346005
1782853728763895800,4.606895751953125,-0.17719781085848807,-0.5319058595255017,-0.028226160194166003
1782853728773880800,4.616880859375,-0.6486024399310351,-0.45037660022154447,0.16396606190688906
1782853728783864800,4.62686474609375,-1.1717600525945424,-0.41207792229168116,0.28941088917441665
1782853728793849900,4.636849853515625,-2.055170196309686,-0.2910124060869217,0.33953806166183204
1782853728803835000,4.6468349609375,-2.853267616659403,-0.11951149169579148,0.3495115760024637
1782853728813819000,4.65681884765625,-3.1016385663717982,0.12389862073883413,0.14094930692408233
1782853728823804000,4.666803955078125,-3.1333056242674586,0.4798958324335515,-0.2905603880031034
1782853728833788000,4.676787841796875,-3.488463462528586,0.7223062663063406,-0.5304332296896725
1782853728843773000,4.68677294921875,-3.8917087476104495,0.6520125406354665,-0.5102932722521946
1782853728853757000,4.6967568359375,-3.8360423899680374,0.43609146975949403,-0.4328433181511238
1782853728863742000,4.706741943359375,-3.377669091904163,0.39941330570355055,-0.385932879220508
1782853728873726000,4.716725830078125,-2.9496348180025813,0.5968529634714126,-0.27372853220030663
1782853728883711000,4.7267109375,-2.9356004474312067,0.6928269277133047,-0.026225268700532614
1782853728893695700,4.73669580078125,-3.002154694312811,0.5830646766155958,0.12641356270182877
1782853728903679700,4.7466796875,-2.7006267394304273,0.5324193620055914,0.22089495029840617
1782853728913664800,4.756664794921875,-2.5693308480471373,0.5876116723954677,0.46648470832705496
1782853728923648800,4.766648681640625,-2.446751347082853,0.676287588583678,0.639368016987294
1782853728933633800,4.7766337890625,-2.247420030349493,0.9266581876806914,0.7017994848504662
1782853728943617800,4.78661767578125,-2.093734612503648,1.206160919368267,0.6620969314720482
1782853728953602800,4.796602783203125,-2.088203866383433,1.3198422436058521,0.4919675976950675
1782853728963587800,4.806587890625,-2.2824212011039258,1.3263529406741261,0.23227767384983597
1782853728973571800,4.81657177734375,-2.5115058510661123,1.2399379551552234,0.13212620472759007
1782853728983556900,4.826556884765625,-2.6098124960392712,1.0964465990655123,0.1141851455738768
1782853728993540900,4.836540771484375,-2.3218495406508444,1.0767657470397651,0.025845877461507915
1782853729003525600,4.846525634765625,-1.71755853613317,1.1405711336046456,-0.038672077819518744
1782853729013509600,4.856509521484375,-1.0794190380275248,1.0865059275485573,-0.008657938230037689
1782853729023494700,4.86649462890625,-0.5331161120980977,0.9002113486513494,0.1110555057786405
1782853729033478700,4.876478759765625,0.12239596109092235,0.8068835150040685,0.22782816536137832
1782853729043464000,4.8864638671875,0.900596256315708,0.8455486150935292,0.33538850423432887
1782853729053449000,4.896448974609375,1.6302636990398167,0.9755957485247403,0.3240119546953589
1782853729063433000,4.906432861328125,2.18530172008872,1.0457918590400368,0.27376353044845164
1782853729073418000,4.91641796875,2.497211368253827,0.9154526107944547,0.2713126666976139
1782853729083402000,4.926402099609375,2.6655770533591507,0.6385065778523683,0.2450938277378678
1782853729093387000,4.936386962890625,2.8869740714281797,0.28149536680951714,0.25002258937694133
1782853729103371000,4.94637109375,3.1783348525613544,-0.03276369402594864,0.36086167592592533
1782853729113355800,4.956355712890625,3.4461534300655123,-0.1769225010484457,0.4076503881730139
1782853729123339800,4.96633984375,3.735907360523939,-0.18251345292329788,0.38931653030943125
1782853729133324800,4.97632470703125,3.975780531004071,-0.06983714100979269,0.3135671330485493
1782853729143309800,4.986309814453125,4.157282176536321,-0.009737257899343967,0.20639069719295947
1782853729153293800,4.9962939453125,4.231263358548284,-0.08011281663477421,0.08759732717126607
1782853729163278800,5.00627880859375,4.216882366496324,-0.17229739853106438,-0.06987626744378357
1782853729173262800,5.016262939453125,4.127078761452436,-0.3067903323899954,-0.1128626647984609
1782853729183248000,5.026247802734375,3.8133839834362266,-0.513638527559489,-0.09434395188726484
1782853729193232000,5.03623193359375,3.332708252671361,-0.7344839030951261,-0.08426613692194222
1782853729203217000,5.046216796875,3.026155163103342,-0.8543398973796517,-0.03654814446810633
1782853729213201000,5.056200927734375,2.825115288886428,-0.8718369756255299,-0.0241985486458987
1782853729223185700,5.066185546875,2.4222592953830957,-0.7635233889661729,-0.08043401141315698
1782853729233170700,5.076170654296875,1.9875036042720078,-0.5778861779991536,-0.04718640632778406
1782853729243154700,5.08615478515625,1.6269167266994713,-0.4069417284470051,-0.017691541372053324
1782853729253139700,5.0961396484375,1.1757283717036247,-0.2987191080067307,-0.029432905635423955
1782853729263123700,5.106123779296875,0.6607254239231347,-0.2060837866682559,-0.0515599087042734
1782853729273108700,5.116108642578125,0.22948913910984992,-0.11452084380164741,0.038219365615956485
1782853729283092700,5.1260927734375,-0.07436112124025822,-0.12039894205480814,0.1850783349752426
1782853729293078000,5.136078125,-0.36648645700514315,-0.22036899019554257,0.3665505717499181
1782853729303063000,5.14606298828125,-0.860875655823946,-0.3105645171664655,0.5558588724451139
1782853729313047000,5.156047119140625,-1.4956664280235767,-0.23452143418863414,0.5997076587827875
1782853729323031800,5.16603173828125,-1.893128453528881,-0.028702655132114886,0.5423815512346103
1782853729333015800,5.176015869140625,-1.994851628947258,0.14042071647271512,0.36548020257204766
1782853729343000800,5.186000732421875,-2.1676918291181324,0.2795060926884413,0.08442414049524813
1782853729352984800,5.19598486328125,-2.551767134305835,0.47635947500094766,-0.16360108278570695
1782853729362969900,5.205969970703125,-2.9528683930963275,0.6351862012580036,-0.272816130063124
1782853729372953900,5.215953857421875,-3.2824118976294994,0.7531355582036078,-0.35792021564655
1782853729382942500,5.2259423828125,-3.5609207959741354,0.7573102135397494,-0.44931357409991324
1782853729392927500,5.235927490234375,-3.8341812722712754,0.6131666771516203,-0.5607839442897588
1782853729402911500,5.245911376953125,-4.099577591064572,0.541356263307482,-0.5979539835158735
1782853729412896500,5.255896484375,-4.41637033509612,0.588410275427252,-0.5513027435107156
1782853729422880500,5.265880615234375,-4.547393254756927,0.554949465982616,-0.5722131007988005
1782853729432865300,5.275865234375,-4.491309548485279,0.414474754300341,-0.5268148930620402
1782853729442849300,5.285849365234375,-4.4479280873984095,0.2890453437976539,-0.5000620568234473
1782853729452834300,5.295834228515625,-4.189581687116623,0.28376645354665814,-0.47366197954528033
1782853729462818300,5.305818359375,-3.885902107158303,0.3940441068205982,-0.48619332514256236
1782853729472803300,5.31580322265625,-3.6102994516491886,0.582635710613802,-0.6451043686822057
1782853729482788400,5.325788330078125,-3.2632910175740717,0.793440826715529,-0.865755390689522
1782853729492772400,5.3357724609375,-2.8828263040989635,0.9604778205003589,-1.1265323791190982
1782853729502757400,5.34575732421875,-2.5323241826891896,0.9816396317988634,-1.332297674422711
1782853729512741400,5.355741455078125,-2.1877537894159556,0.8653256940353661,-1.4042289381675421
1782853729522726400,5.365726318359375,-1.8288041576564311,0.6666012571539729,-1.3925253486312925
1782853729532710400,5.37571044921875,-1.3373334766328333,0.5021431739464401,-1.3499597339719533
1782853729542695200,5.385695068359375,-0.7947773360162973,0.3860294349301606,-1.2884354440815746
1782853729552679400,5.395679443359375,-0.3249327958673239,0.302754720198363,-1.1513514708161354
1782853729562664200,5.405664306640625,0.04523439547717571,0.22811883713733402,-1.0468860109522937
1782853729572649500,5.4156494140625,0.45540334234237667,0.20669446591250598,-0.9715765029460192
1782853729582633200,5.42563330078125,0.9257102393060922,0.1874093717386946,-0.9221852800503373
1782853729592618500,5.435618408203125,1.3475292919546364,0.08303582794200629,-0.8679689750857651
1782853729602602500,5.4456025390625,1.6741268061637877,-0.023557108937203884,-0.8376017477422952
1782853729612587500,5.45558740234375,2.0474492466688154,-0.12150094847995788,-0.8064688697885721
1782853729622571500,5.465571533203125,2.3557132318079472,-0.2564748342562467,-0.8445940177824348
1782853729632556500,5.475556640625,2.6082792951226232,-0.45597825615350157,-0.7350755123127252
1782853729642540500,5.48554052734375,2.679704362910986,-0.7436437994979321,-0.49984373789764935
1782853729652525300,5.495525390625,2.60170225481987,-0.9172764652207493,-0.43659291647560894
1782853729662510300,5.50551025390625,2.7151374953418967,-0.969921940672025,-0.4005970355954021
1782853729672494300,5.515494384765625,2.9504163237690926,-1.0246676032729447,-0.38240218434371054
1782853729682479400,5.525479248046875,3.086245766928792,-1.106497014567256,-0.4396508427415043
1782853729692463400,5.53546337890625,3.075177260425687,-1.210074731811136,-0.4410154090929776
1782853729702448400,5.545448486328125,3.0848288858681916,-1.2826974849514663,-0.3533694204743951
1782853729712432400,5.555432373046875,3.0789860050588844,-1.3720176903925836,-0.24172807763181625
1782853729722417400,5.56541748046875,2.981706365045905,-1.3935682818129658,-0.17748042719215154
1782853729732401400,5.5754013671875,2.8172698360830544,-1.3921788732811808,-0.0966464566759765
1782853729742386400,5.585386474609375,2.5810318072348832,-1.3836552289552986,-0.018160729786381124
1782853729752371200,5.59537109375,2.267795294380188,-1.2703019676283,-0.09522036939561367
1782853729762355200,5.605355224609375,2.001322286266088,-1.141932923477143,-0.14679901933297515
1782853729772340200,5.61534033203125,1.7575643833070993,-1.0665572914320975,-0.1741904457360506
1782853729782324200,5.62532421875,1.5994231550961733,-0.9993141855034977,-0.22565774425342677
1782853729792309200,5.635309326171875,1.3266554307520388,-0.9976334658749401,-0.13078721120879053
1782853729802293200,5.645293212890625,0.9449562070459127,-0.9185507229402661,-0.11003259247168898
1782853729812278300,5.6552783203125,0.6351455769866704,-0.8536001849282533,-0.07397124513983726
1782853729822262300,5.66526220703125,0.4449976836621761,-0.8011183025408536,-0.02387823065035045
1782853729832247300,5.675247314453125,0.24895839421153068,-0.832730926835537,0.1357751556891948
1782853729842232600,5.685232666015625,-0.060948681959509844,-0.9075892570082098,0.3366094243314117
1782853729852216600,5.695216552734375,-0.3267915754765272,-1.048181603720784,0.5376916763853281
1782853729862201300,5.705201416015625,-0.5442810647130012,-1.0726798659656196,0.5802404129751026
1782853729872185300,5.715185302734375,-0.8691869725733995,-0.9380615521613508,0.5169813351813703
1782853729882170400,5.72517041015625,-1.2111515672624111,-0.7257884823989122,0.43560098282881077
1782853729892154400,5.735154296875,-1.4142536347061394,-0.5694107567291706,0.3804720930639654
1782853729902139400,5.745139404296875,-1.684848106664419,-0.40218342800401147,0.30622992202825844
1782853729912123400,5.755123291015625,-2.0454297235399483,-0.20899112548232077,0.2738337461404502
1782853729922108400,5.7651083984375,-2.3516578189373014,-0.1997284993574023,0.3300401289436966
1782853729932093400,5.775093505859375,-2.657107331177592,-0.4086300468601286,0.36164690801948307
1782853729942077400,5.785077392578125,-2.885460159733891,-0.6071902330905199,0.39355756541267034
1782853729952062500,5.7950625,-3.0874662486344575,-0.5980344283409417,0.4953131817959249
1782853729962046500,5.80504638671875,-3.2906396277487278,-0.42154622705653305,0.5065980344634503
1782853729972031200,5.81503125,-3.4392882204711435,-0.1846947424851358,0.47428610279299316
1782853729982015500,5.825015380859375,-3.4307331580936906,0.011951134556531906,0.42933607721515
1782853729992000300,5.835000244140625,-3.339837666159868,0.14383052491620182,0.3505821278434247
1782853730001984300,5.844984375,-3.2105396705955265,0.3158743140123784,0.326583924075216
1782853730011969300,5.85496923828125,-2.9250843141138554,0.4987321964591741,0.42937582470364866
1782853730021954300,5.864954345703125,-2.524727736210823,0.6066847677864134,0.5240172251675278
1782853730031938300,5.874938232421875,-2.1074860744804145,0.6988672307908534,0.5742916606385261
1782853730041923300,5.88492333984375,-1.8380986402243376,0.7987118259210139,0.6206267108339816
1782853730051907300,5.8949072265625,-1.7088345469295978,0.8429225043736398,0.5853394166145474
1782853730061892400,5.904892333984375,-1.5821651463031767,0.8447544690411537,0.4428804723124951
1782853730071876400,5.91487646484375,-1.4834060813874006,0.8212849653221667,0.4047825776517391
1782853730081861400,5.924861328125,-1.4983213264465332,0.7238312108512968,0.5155864467568695
1782853730091845400,5.934845458984375,-1.4382026655703781,0.5529797733448445,0.6529606351405381
1782853730101830400,5.944830322265625,-1.1409002194285391,0.673480349143222,0.5539065328009426
1782853730111815400,5.9548154296875,-0.5604822579294443,0.9366359032724052,0.30178408506792037
1782853730121799400,5.96479931640625,-0.0019639935493469237,1.0946163148984311,0.06893763488680124
1782853730131784400,5.974784423828125,0.5836334164142608,1.095699653155729,-0.028893428463861344
1782853730141768400,5.9847685546875,1.1181722547918558,0.988328315782547,-0.0021602467738091945
1782853730151753500,5.99475341796875,1.4884037435442208,0.8511543992113322,0.14843560755886137
1782853730161737500,6.004737548828125,1.7065765388697385,0.7506258404050022,0.2847464410273358
1782853730171722500,6.014722412109375,1.9950106189012526,0.6397203375563025,0.3746958477500826
1782853730181706500,6.02470654296875,2.3761861109942197,0.46317266116961836,0.4435287070881575
1782853730191691500,6.03469140625,2.74530700815618,0.312359583889693,0.4543022492326796
1782853730201675500,6.044675537109375,3.1424931393295523,0.2221257707349956,0.46557804181091483
1782853730211660300,6.054660400390625,3.4822172616153955,0.1454770500142127,0.4743790417734533
1782853730221645300,6.064645263671875,3.796974700427055,0.12802424930147827,0.38066878467984494
1782853730231629300,6.07462939453125,4.001842608499527,0.12435652057416736,0.31444055488221345
1782853730241614300,6.0846142578125,4.106690637940168,0.08658267023600637,0.2474620547065511
1782853730251598300,6.094598388671875,4.205725012665987,-0.034326632493734355,0.164495949266199
1782853730261583400,6.104583251953125,4.248441872364283,-0.22044592788927256,0.1302799192737788
1782853730271567400,6.1145673828125,4.1333933514267205,-0.3957967226415872,0.13119626693371683
1782853730281552400,6.124552490234375,3.954500427088141,-0.5111608853995799,0.221732204840146
1782853730291536400,6.134536376953125,3.719872171524167,-0.5563478615384548,0.32945104047674684
1782853730301521400,6.144521484375,3.5007600495219227,-0.5671711611088365,0.41391218851413575
1782853730311506200,6.154506103515625,3.1940327724307775,-0.5334150219794362,0.4079387035951018
1782853730321490200,6.164490234375,2.7990415209531783,-0.4738227230649441,0.38950149495489894
1782853730331475200,6.17447509765625,2.3354390900641677,-0.4136952212952077,0.33726525789164
1782853730341459200,6.184459228515625,1.764806609520316,-0.3767150786180049,0.3568835660751909
1782853730351444500,6.194444580078125,0.9589572598695755,-0.32095125195048746,0.43441867770906534
1782853730361428200,6.20442822265625,0.21030688425600527,-0.31121633213870226,0.5496827776260673
1782853730371413500,6.21441357421875,-0.2997732201695442,-0.3490933505903929,0.7824586833216249
1782853730381397500,6.2243974609375,-0.8179337551981211,-0.2711585355818271,1.023280752024427
1782853730391378400,6.23437841796875,-1.3035504494965076,-0.10777779928222297,1.2038147215683013
1782853730401363500,6.244363525390625,-1.6064578760385513,0.05516754127480089,1.2954510219320654
1782853730411347500,6.254347412109375,-1.7902327271997927,0.2288638468183577,1.265636021643877
1782853730421332500,6.26433251953125,-1.9767513241112231,0.41116599507853385,1.1543356011934578
1782853730431316500,6.27431640625,-2.187407752457261,0.4979387079939246,1.023214920246601
1782853730441301200,6.28430126953125,-2.4615754067271944,0.5299982723385095,0.8980516133341938
1782853730451285200,6.29428515625,-2.867235936257243,0.5718938787817954,0.8082993731513619
1782853730461270300,6.304270263671875,-3.3341426693886516,0.5572185799583792,0.7812324294622986
1782853730471254300,6.314254150390625,-3.947708867251873,0.4294253629337996,0.7724967498209327
1782853730481239300,6.3242392578125,-4.338596775063872,0.2366747397650033,0.583503141098097
1782853730491223300,6.334223388671875,-4.3023985034793615,0.17269268145896494,0.30105949712041763
1782853730501208300,6.344208251953125,-4.403091166806221,0.22480836088247597,0.0407314580347389
1782853730511193300,6.354193359375,-4.442831641042233,0.45351898990049955,-0.23354990400904788
1782853730521177300,6.36417724609375,-4.291283819746971,0.6280949278227984,-0.3882111994160339
1782853730531162400,6.374162353515625,-4.279175448802113,0.4810406916197389,-0.3158287943702191
1782853730541146400,6.384146484375,-4.507499635785818,0.15329057330936194,-0.11724254211680962
1782853730551131400,6.39413134765625,-4.4851948649972675,0.01972637166790664,-0.12372934685284272
1782853730561115400,6.404115478515625,-4.110440930384398,0.136506502171047,-0.21495646362751722
1782853730571100400,6.414100341796875,-3.780387138241529,0.2790380002526566,-0.359864116255939
1782853730581084400,6.42408447265625,-3.4622914949178694,0.3587496887406334,-0.6116359239203855
1782853730591069400,6.4340693359375,-3.0560552113264796,0.3939311479654163,-0.8808508146211504
1782853730601054500,6.444054443359375,-2.6653274625122547,0.46332452726308254,-1.1331216213162987
1782853730611038500,6.45403857421875,-2.2391057909905907,0.558757589561306,-1.3700304620981216
1782853730621023500,6.4640234375,-1.7685539793550966,0.5642971765751019,-1.5388110116146505
1782853730631007500,6.474007568359375,-1.4059844035327433,0.4165487840954214,-1.5585808570981026
1782853730640992500,6.483992431640625,-0.9897843598097562,0.31851003281082957,-1.6432361394681037
1782853730650976500,6.4939765625,-0.35700434291064737,0.258661128786765,-1.6738127717785536
1782853730660961300,6.503961181640625,0.265274738240242,0.18834073430467396,-1.546127325977385
1782853730670945300,6.5139453125,0.7455483179450034,0.08445734864510596,-1.274181147149205
1782853730680930300,6.523930419921875,1.05699210216403,-0.061997825686261054,-1.003599607737735
1782853730690914300,6.533914306640625,1.357920337587595,-0.24202574540413915,-0.8108575332015753
1782853730700899300,6.5438994140625,1.6275813280880451,-0.38141624204628166,-0.6989324049815535
1782853730710884400,6.55388427734375,1.8504262068778274,-0.45967627042122183,-0.5871516536682844
1782853730720868400,6.563868408203125,2.106650792700052,-0.5008490424826741,-0.5759276643425226
1782853730730853400,6.573853271484375,2.3583757290154694,-0.5646691882252692,-0.6360653952453285
1782853730740837400,6.58383740234375,2.578048407509923,-0.6125702456284314,-0.7071367542251944
1782853730750822400,6.593822509765625,2.8236797031253573,-0.6654451459214091,-0.7009640569396317
1782853730760806400,6.603806396484375,3.113024468261003,-0.7641686280671507,-0.6611189532853663
1782853730770791200,6.613791259765625,3.2690894747197627,-0.8720428734611719,-0.6260184868749231
1782853730780775400,6.623775390625,3.3677947636216876,-0.9106579969290644,-0.5366487066710367
1782853730790760200,6.63376025390625,3.3928812740832566,-0.9878473273325711,-0.4071489049242809
1782853730800745500,6.643745361328125,3.3043834909409284,-1.0729580983851104,-0.3191581214560196
1782853730810729200,6.653729248046875,3.127450468498468,-1.1169712084390222,-0.28649993363115933
1782853730820714500,6.663714599609375,2.962552751764655,-1.1174122302047909,-0.28034126487094907
1782853730830698500,6.673698486328125,2.763336585843563,-1.0325893361829221,-0.35386980774458493
1782853730840683500,6.68368359375,2.5631290707975625,-0.9130570939600468,-0.5001876924971118
1782853730850667500,6.69366748046875,2.3924732289284467,-0.7842399407152086,-0.5972688142633065
1782853730860652500,6.703652587890625,2.238523607188463,-0.6482189935714006,-0.6199287186324596
1782853730870636500,6.713636474609375,2.0249404777407647,-0.574096868718788,-0.5012538969565182
1782853730880621300,6.723621337890625,1.739838172480464,-0.6142086604852229,-0.374173358245939
1782853730890605600,6.73360546875,1.296512805944681,-0.6417801196303218,-0.3276260170066729
1782853730900590300,6.74359033203125,0.9815250655084847,-0.569017884954065,-0.20767733947001396
1782853730910575400,6.753575439453125,0.7333803257673979,-0.48203006798326964,-0.20464944301620125
1782853730920559400,6.763559326171875,0.5605974087417125,-0.388307243669033,-0.29879403640646485
1782853730930544400,6.77354443359375,0.4664589893639087,-0.2834206357836723,-0.31231852122694254
1782853730940528400,6.7835283203125,0.32522914846539497,-0.2986465542271733,-0.1865420143196359
1782853730950513400,6.793513427734375,0.08884674271047115,-0.4244270431898534,-0.00908723302539438
1782853730960497400,6.803497314453125,-0.09481471120417118,-0.5337874354884028,0.13414517986718563
1782853730970482400,6.813482421875,-0.1958615947961807,-0.5129933615237474,0.21206216695811597
1782853730980466400,6.823466552734375,-0.45742228094935417,-0.383191508090496,0.30759233295526356
1782853730990451500,6.833451416015625,-0.8856132067173719,-0.28286402481421824,0.38679724096488205
1782853731000436200,6.843436279296875,-1.285839436239004,-0.19384952432140706,0.3665149889798835
1782853731010420200,6.853420166015625,-1.6482769101142882,-0.069852850035578,0.3309402926538139
1782853731020405200,6.8634052734375,-2.060579946398735,0.041941199150681494,0.3967256009895354
1782853731030389200,6.87338916015625,-2.430274259534478,0.14660554258748887,0.46264074625000356
1782853731040374300,6.883374267578125,-2.5931886934965847,0.193712600068748,0.5083931011866778
1782853731050358300,6.893358154296875,-2.6697382646918295,0.08419599429517984,0.5046147151591256
1782853731060343300,6.90334326171875,-2.805241544637084,0.060936845391243694,0.446788037677668
1782853731070327300,6.913327392578125,-2.9871266365289686,0.24560236178189515,0.43565892356112595
1782853731080312300,6.923312255859375,-3.159125709700584,0.3611461188904941,0.5293509143456816
1782853731090296300,6.93329638671875,-3.327168738722801,0.2967351676478982,0.5968493832748383
1782853731100281600,6.943281494140625,-3.4645015721827743,0.1998937729217112,0.678618954140693
1782853731110266400,6.953266357421875,-3.567124326789379,0.25489494465366,0.7785660597972571
1782853731120250400,6.96325048828125,-3.458689671033621,0.3840351193077862,0.8274119968350976
1782853731130235400,6.9732353515625,-3.142496061939001,0.4619422425918281,0.7181940086819231
1782853731140219400,6.983219482421875,-2.8034382946074006,0.6471694845184683,0.5464389733992516
1782853731150204400,6.993204345703125,-2.459629533356428,0.98244320326671,0.5320800835812464
1782853731160188400,7.0031884765625,-2.070994372907281,1.2348229502290486,0.6110239660345017
1782853731170173400,7.01317333984375,-1.632192036753893,1.2573610913820563,0.6558777646962552
1782853731180157400,7.023157470703125,-1.263593702161312,1.1138158131480216,0.7083786440450698
1782853731190142500,7.033142578125,-0.911107713457942,0.9630309390492737,0.7785333996366709
1782853731200127500,7.04312744140625,-0.5659446149885654,0.8288686984494328,0.8010982826661318
1782853731210111500,7.053111572265625,-0.302114230337739,0.6669260321289301,0.80619779776223
1782853731220096300,7.06309619140625,-0.020678046369552613,0.5868357195869088,0.7287801384955644
1782853731230080300,7.073080322265625,0.3106792295873165,0.6487152526557445,0.5851255912007763
1782853731240065300,7.083065185546875,0.6378554204672575,0.7898606301411986,0.4169909018397331
1782853731250049300,7.09304931640625,0.8125888870388269,0.8382651800870895,0.3228004600137472
1782853731260034300,7.103034423828125,1.0219546910524369,0.7172437222197652,0.36054691088832913
1782853731270018300,7.113018310546875,1.291113577249646,0.545483572370559,0.3071696505637839
1782853731280003300,7.12300341796875,1.3320616737097501,0.3992719975367188,0.3323861075479537
1782853731289987300,7.1329873046875,1.4266986902594565,0.32888357931971546,0.44199313155133274
1782853731299972400,7.142972412109375,1.6089491083323955,0.36641295337751506,0.5500768915101886
1782853731309957400,7.152957275390625,1.8330828578889369,0.4044099449470639,0.5697002046624198
1782853731319941400,7.16294140625,2.1515040799051524,0.44216640575900673,0.4661735965512693
1782853731329926100,7.172926025390625,2.5026772324442863,0.5002621825054288,0.41427882986944164
1782853731339910100,7.18291015625,2.832168130007386,0.5077247734710574,0.44082383204363285
1782853731349895400,7.1928955078125,2.992001549088955,0.39838104004636404,0.5593158444985747
1782853731359879200,7.202879150390625,2.984936433008313,0.26051424584016203,0.7292255441755056
1782853731369864400,7.212864501953125,3.0846821708738803,0.1527557357802987,0.8312007946588098
1782853731379848400,7.222848388671875,3.1622885576456783,0.058439621748030184,0.8344524899311363
1782853731389833200,7.232833251953125,3.134858698928356,0.0011029928058385848,0.7756327097591013
1782853731399817200,7.242817138671875,3.1043700371623038,-0.06685279143676161,0.7065577852934598
1782853731409802200,7.25280224609375,3.008946838670969,-0.1266176704391837,0.6803764653325081
1782853731419787300,7.262787353515625,2.8421055866539477,-0.1377349845200777,0.5907339691344649
1782853731429771300,7.272771240234375,2.6349966216564176,-0.11946166120469569,0.5149993675839155
1782853731439756000,7.282756103515625,2.3478812230080366,-0.11210106930881739,0.4262031129516661
1782853731449740300,7.292740234375,2.0067010566949843,-0.14956161591410636,0.3198660870622843
1782853731459725000,7.30272509765625,1.5569517945915459,-0.1934811294004321,0.25503174104215576
1782853731469709000,7.312708984375,1.0385305628001689,-0.197796946772933,0.3111434860982001
1782853731479694000,7.322694091796875,0.4837140755474567,-0.17624664761349557,0.37590029163639993
1782853731489678000,7.332677978515625,0.04851239423453808,-0.2727959275253117,0.5515701257426291
1782853731499663400,7.342663330078125,-0.4026964190274477,-0.4856739774435758,0.8192875809598713
1782853731509647000,7.352647216796875,-0.8156471055656671,-0.557839196074754,0.9308020094871521
1782853731519632400,7.36263232421875,-0.9903530996084212,-0.3316426687695086,0.7623534684039652
1782853731529617400,7.372617431640625,-0.9821943430721759,-0.01848097471669316,0.4276669018939137
1782853731539601400,7.382601318359375,-1.150360121691227,0.20817104127109048,0.08447220828752033
1782853731549586200,7.392586181640625,-1.4329057282060385,0.32333208267241714,-0.25399638837873934
1782853731559570400,7.4025703125,-1.8474141655802725,0.3793858321972191,-0.5630930614823475
1782853731569555200,7.41255517578125,-2.121259163767099,0.4410037917204201,-0.9419253879826516
1782853731579539200,7.422539306640625,-2.1134780083715916,0.3645747781649232,-1.2773621152728796
1782853731589524200,7.432524169921875,-1.7328151419758795,0.22031974422633646,-1.2023512248869985
1782853731599508200,7.44250830078125,-0.9621031566798687,0.18476473898142576,-0.6449146182637662
1782853731609493200,7.4524931640625,-3.8575498728990554,-0.2251401501201093,-0.03642923536275047
1782853731619477200,7.462477294921875,-3.3991286440402266,-0.07733224600553512,-0.13716544100381434
1782853731629462300,7.472462158203125,-3.0435645630657673,0.18338555958271024,-0.8981976707413792
1782853731639447300,7.482447265625,-2.8468536579638717,0.3496164246164262,-1.1121489028491078
1782853731649431300,7.492431396484375,-2.9909798048257827,0.5112837811268865,-1.066341237528622
1782853731659416300,7.502416259765625,-3.041192573237419,0.45145051306337114,-1.0272516284167765
1782853731669400300,7.512400390625,-2.7610826694369313,0.301589183550328,-0.9723876001331955
