time,seconds_elapsed,z,y,x
1782853701962128600,0.106128662109375,-0.3648451195389032,-0.05121069340780377,0.24383326975014058
1782853701972112600,0.116112548828125,-0.4960270291537046,-0.04694251456931233,0.3640411462122574
1782853701982097700,0.12609765625,-0.4760030627787113,-0.18754209474027156,0.5288099758693948
1782853701992082700,0.136082763671875,-0.3567810555487871,-0.2806422571115196,0.5858041845820844
1782853702002066700,0.146066650390625,-0.3778133221834898,-0.1844080344982445,0.5032563228201121
1782853702012051500,0.156051513671875,-0.5809457847654819,-0.07032295176535844,0.4203419658333063
1782853702022036700,0.16603662109375,-0.8771405619263648,-0.0814656925484538,0.34826113754995164
1782853702032020700,0.176020751953125,-1.2027981649369002,-0.2067094442859292,0.2968294218026101
1782853702042005800,0.186005859375,-1.4524784436821936,-0.2251069785028696,0.25635705309547485
1782853702051989800,0.19598974609375,-1.6032488508641718,0.03232844441384077,0.18181940624453127
1782853702061974800,0.205974853515625,-1.7326234187960623,0.4020250956371426,-0.0418835689456202
1782853702071959800,0.215959716796875,-1.8252672157019376,0.6454232253730297,-0.29975396747980265
1782853702081943800,0.22594384765625,-1.8122966749697922,0.6868317789517343,-0.4519901728980243
1782853702091928800,0.2359287109375,-1.758307310628891,0.6090842301435768,-0.5528214409779757
1782853702101913600,0.24591357421875,-1.7488111680090426,0.5213210448861122,-0.6064310122210532
1782853702111897600,0.255897705078125,-1.7923662320971487,0.5597732328772544,-0.6307092750396579
1782853702121882600,0.265882568359375,-1.955749452614784,0.6501582910709083,-0.6582222819957881
1782853702131866600,0.27586669921875,-1.9021300906300544,0.576489243748039,-0.7023307421829551
1782853702141851600,0.2858515625,-1.9059937803208826,0.4566575801871717,-0.6653858900148422
1782853702151836700,0.295836669921875,-2.014387519544363,0.4647423947043717,-0.5571925322016701
1782853702161820700,0.305820556640625,-1.8939590591341255,0.6563137449607253,-0.4887548827262595
1782853702171805700,0.3158056640625,-1.5473644665569066,0.9886166312046348,-0.49710660455133765
1782853702181790500,0.32579052734375,-1.2096937696695327,1.3263245913624764,-0.5722820378491654
1782853702191774700,0.335774658203125,-0.9047475307762622,1.4677503932245075,-0.6333499988067894
1782853702201759500,0.345759521484375,-0.6967834102541208,1.4903918486215173,-0.7892722357939929
1782853702211744800,0.355744873046875,-0.37926702812314034,1.4863758909784257,-0.9564210924554616
1782853702221728800,0.365728759765625,-0.10429039555788039,1.5384768112242222,-1.0757926642239093
1782853702231713800,0.3757138671875,0.06776712980270386,1.5431656996928154,-1.2060013448923825
1782853702241697800,0.38569775390625,0.36854222049117086,1.4757057361431418,-1.3377639770045875
1782853702251682800,0.395682861328125,0.677605247053504,1.4028846839517355,-1.4113171428628266
1782853702261667800,0.405667724609375,0.7867793229997158,1.2766960525795816,-1.3684084138542414
1782853702271651800,0.41565185546875,0.8578665371358394,1.0640719774223864,-1.2062380762577056
1782853702281636600,0.42563671875,0.9524743275910615,0.839439192302525,-1.0342810886621474
1782853702291621600,0.43562158203125,1.155275950783491,0.6407813909165561,-0.8859242454279214
1782853702301605600,0.445605712890625,1.4476783499240875,0.509194115371257,-0.7240576400183141
1782853702311590700,0.455590576171875,1.7816952004790305,0.4669850590646267,-0.5605368011282756
1782853702321574700,0.46557470703125,1.8982821830302476,0.4582580011211335,-0.3862862957680598
1782853702331559700,0.4755595703125,1.9768799189269541,0.40752720018476246,-0.2722309871189296
1782853702341544700,0.485544677734375,2.0587509774059054,0.33532194180414077,-0.2257726758699864
1782853702351528700,0.49552880859375,2.0773323437571523,0.2656538006857037,-0.17769816159605978
1782853702361513200,0.50551318359375,1.912335842823982,0.13715090102180838,-0.1642937594912946
1782853702371498000,0.515498046875,1.7990730362594127,-0.021040449941158293,-0.19035393729060887
1782853702381482200,0.525482177734375,1.803832213485241,-0.14034911254122853,-0.2240120228730142
1782853702391467000,0.535467041015625,1.7871370992720126,-0.27477555703520773,-0.2472108198918402
1782853702401451000,0.545450927734375,1.695809061139822,-0.42612931706309315,-0.3091211134251207
1782853702411436000,0.55543603515625,1.6271745008528231,-0.5957573502544313,-0.3552310496278107
1782853702421421300,0.56542138671875,1.5613228492826223,-0.7797712708685547,-0.36424540008008477
1782853702431405300,0.5754052734375,1.4932996988922356,-0.9255723652053623,-0.37588308477327226
1782853702441390300,0.585390380859375,1.362343999248743,-1.083557526071742,-0.3568780131172389
1782853702451375400,0.595375244140625,1.1784458139687777,-1.2048812548212706,-0.19913513657413423
1782853702461359400,0.605359375,0.9148603439897298,-1.3405652981609106,-0.017240327005833386
1782853702471344000,0.61534423828125,0.6602145517915486,-1.4452243809007108,0.10891995505467057
1782853702481328000,0.625328125,0.5732254196465015,-1.4300062073722482,0.07865319241099059
1782853702491313200,0.635313232421875,0.5163432564735412,-1.3395299637638032,-0.08047514714114368
1782853702501298200,0.645298095703125,0.4558943407297134,-1.307939624366164,-0.22974947054646908
1782853702511282200,0.6552822265625,0.2997644523411989,-1.3670137446254491,-0.3525280742794275
1782853702521267200,0.66526708984375,0.11345920591950416,-1.511091083909571,-0.43548042518906294
1782853702531252200,0.675252197265625,-0.07442541864812374,-1.6660967905737458,-0.41007827290706333
1782853702541236200,0.685236328125,-0.3215671188265085,-1.749275716780871,-0.275194659230113
1782853702551221200,0.69522119140625,-0.44521804841458795,-1.7825320896945893,-0.13959047619365156
1782853702561205200,0.705205322265625,-0.47157414042055606,-1.8446572680875657,-0.04906776309497654
1782853702571190000,0.71518994140625,-0.49561961739659305,-1.8595596536651253,-0.032408816173672673
1782853702581175000,0.725175048828125,-0.4231704672574997,-1.8241804433785378,-0.047610403893515466
1782853702591159000,0.735158935546875,-0.38573067117929455,-1.8245222425535321,-0.05899893613122403
1782853702601144000,0.74514404296875,-0.34043256281614304,-1.8796221984848378,-0.05360599104650318
1782853702611129300,0.75512939453125,-0.27897476229071616,-1.925729431273788,-0.007024711005017161
1782853702621113300,0.76511328125,-0.42984161558449263,-1.8769773830644785,0.05565722448788583
1782853702631098400,0.775098388671875,-0.8691752821356058,-1.8516238922297954,0.17205124175027012
1782853702641082400,0.785082275390625,-1.3591618620812893,-1.8430569932840764,0.34882089032456276
1782853702651067100,0.795067138671875,-1.6744640752941369,-1.7355571341603993,0.4022430492367595
1782853702661052200,0.80505224609375,-1.886856533652544,-1.5110783705584705,0.3840864841688424
1782853702671036200,0.8150361328125,-2.1641513800323007,-1.2359051925078033,0.2031220873184502
1782853702681021200,0.825021240234375,-2.263198029717803,-1.0107548132546245,-0.05719802418909967
1782853702691006200,0.835006103515625,-2.362578441402316,-0.8883115058906376,-0.30892369115687907
1782853702700990200,0.844990234375,-2.3925743512153623,-0.7933842011574656,-0.455389240751788
1782853702710975200,0.854975341796875,-2.4786422768622636,-0.7036855908580124,-0.47528658507242794
1782853702720960300,0.864960205078125,-2.6721733828842638,-0.6510835892222822,-0.42331688999086614
1782853702730944300,0.8749443359375,-2.824284683281183,-0.6768591779265553,-0.3624122663687914
1782853702740929000,0.884928955078125,-2.814864528506994,-0.7355618345249444,-0.2740424935203045
1782853702750913000,0.8949130859375,-2.7911241719573736,-0.7492829744286835,-0.2936339502295479
1782853702760898000,0.90489794921875,-2.6870664161115885,-0.6776299431033432,-0.3988788700332865
1782853702770883000,0.914883056640625,-2.4785306331813333,-0.43017720421440897,-0.3709802978256717
1782853702780867000,0.9248671875,-2.36094879437387,-0.05630450941547751,-0.17367548195123672
1782853702790852000,0.93485205078125,-2.216567211446166,0.1544252033624798,0.030659451755695042
1782853702800837400,0.94483740234375,-2.0171295117288826,0.15550521715153007,0.14047065656166524
1782853702810821400,0.9548212890625,-1.8218559459537267,0.07788151391874998,0.1993348238646984
1782853702820806100,0.96480615234375,-1.6777736382335424,0.12491543309856205,0.26930267858207224
1782853702830790400,0.974790283203125,-1.5312515361458061,0.3006842340672389,0.4012659478329122
1782853702840775200,0.984775146484375,-1.431815594881773,0.38456407508533447,0.47490913006216284
1782853702850760200,0.99476025390625,-1.3529086469054221,0.3356959992809221,0.4590132034026086
1782853702860744200,1.004744140625,-1.1965163081884382,0.2660026141233742,0.38047706150002775
1782853702870729200,1.014729248046875,-1.004606081366539,0.22119323912523686,0.3187039844803512
1782853702880714200,1.02471435546875,-0.8337754674524068,0.19767858109027145,0.3515637592919171
1782853702890698200,1.0346982421875,-0.6299030001580714,0.0928436303269118,0.4259135554205626
1782853702900683300,1.044683349609375,-0.3198199828982353,0.012002261955570429,0.5263914800181985
1782853702910668000,1.05466796875,0.025966800427436827,0.03994450890813023,0.6428777056086808
1782853702920652000,1.064652099609375,0.2630044552206993,0.1420096661645919,0.6945185340620577
1782853702930637000,1.074636962890625,0.47910161331593987,0.2178714377587661,0.6802746854584664
1782853702940621000,1.08462109375,0.7019944229006767,0.22031298569198696,0.6311411636509001
1782853702950606000,1.094606201171875,0.8350193300336599,0.20639610402043906,0.5590514579413458
1782853702960591000,1.104591064453125,0.8572732474178075,0.22437946794591843,0.4224696255117655
1782853702970575000,1.1145751953125,0.8330062366455793,0.15658643651697784,0.4135680877842009
1782853702980560400,1.124560302734375,0.7683464252084493,0.02024577416582033,0.6129504040524363
1782853702990545200,1.134545166015625,0.8699006738007068,-0.0924548776044976,0.7717736231781542
1782853703000529400,1.144529296875,1.1338175676912068,-0.07814493236159906,0.9396060781896114
1782853703010514200,1.15451416015625,1.4347569090306758,0.04804464885862544,1.0597666814438997
1782853703020499200,1.164499267578125,1.736284863913059,0.14598867106446994,1.0285190910693258
1782853703030483200,1.174483154296875,1.9365613525420426,0.15256346461120993,0.9473067156948148
1782853703040468200,1.18446826171875,2.0268413429260255,0.09150105661153793,0.8322878592431545
1782853703050452200,1.1944521484375,2.0838468402177095,-0.0367899721336551,0.7324573657035828
1782853703060437200,1.204437255859375,2.0430144790917635,-0.18974157754592597,0.7407089150898158
1782853703070422300,1.21442236328125,1.8782500333487986,-0.2661308070803061,0.7149908287264406
1782853703080406300,1.22440625,1.6970926712095737,-0.2461333268534392,0.6344892319697887
1782853703090391000,1.23439111328125,1.4643869081407785,-0.19937972245234994,0.5562121793948114
1782853703100376000,1.2443759765625,1.254171793821454,-0.18991477868836373,0.47606114964149887
1782853703110360000,1.254360107421875,1.053344101050496,-0.2366504090413451,0.45246447587888683
1782853703120345000,1.264344970703125,0.897629223203659,-0.29729652785770594,0.5099802242476493
1782853703130330000,1.274330078125,0.734224959897995,-0.34058603634480383,0.5719066651981324
1782853703140314000,1.284314208984375,0.5445131199032068,-0.3404886769175529,0.5904476264737546
1782853703150299100,1.294299072265625,0.23095161287784574,-0.3301251403460279,0.5482087960833684
1782853703160284200,1.3042841796875,-0.03696457978188991,-0.4197822130586952,0.47005003612581636
1782853703170268400,1.314268310546875,-0.15018646981418132,-0.5519711808241904,0.4019148036630824
1782853703180253200,1.324253173828125,-0.23043197291791437,-0.5617354363283142,0.4247591246884316
1782853703190237200,1.3342373046875,-0.2822942621022463,-0.4718284439751878,0.4824461014382541
1782853703200222200,1.34422216796875,-0.24414134931862352,-0.38851716009266674,0.563312293723598
1782853703210207200,1.354207275390625,-0.21071020435988902,-0.31548568002097305,0.5929990645222365
1782853703220191200,1.364191162109375,-0.35712183181047435,-0.26086835650745777,0.579582387457788
1782853703230176300,1.37417626953125,-0.6658949355155229,-0.25572259111683815,0.5366910479754209
1782853703240161300,1.384161376953125,-0.9595470424562692,-0.18114373547267168,0.39749256677404043
1782853703250145300,1.394145263671875,-1.3480384105205536,0.029319873715005815,0.14636313040005042
1782853703260130000,1.404130126953125,-1.8082886083722114,0.27944877301063387,-0.1656120755482465
1782853703270115000,1.414114990234375,-2.029580997022986,0.46531347259059547,-0.46728459000047295
1782853703280099000,1.42409912109375,-2.2092291236430404,0.6301820362951606,-0.5992495032191276
1782853703290084000,1.434083984375,-2.4420699112683533,0.7397662274122238,-0.5975098199449479
1782853703300069000,1.444069091796875,-2.6264509116292,0.7427237620435655,-0.5708281492464244
1782853703310053000,1.45405322265625,-2.6547493698745965,0.7235051207020878,-0.6605069588668644
1782853703320038100,1.4640380859375,-2.572637488377094,0.8452037471786141,-0.8485749041121452
1782853703330023200,1.474023193359375,-2.5675679300278422,1.0917311148509383,-1.077632519936934
1782853703340007400,1.48400732421875,-2.581927294769883,1.1680147285863756,-1.2645881200261413
1782853703349992200,1.4939921875,-2.4571143356651066,0.9937950567558407,-1.3716231381170452
1782853703359977000,1.50397705078125,-2.1985393873244523,0.7048823994271457,-1.34805448487252
1782853703369962000,1.5139619140625,-1.9357588039875029,0.5933396946534514,-1.153788780965656
1782853703379947000,1.523947021484375,-1.634946303898096,0.6240461638886481,-0.8837127799235284
1782853703389931000,1.533930908203125,-1.2803951993584632,0.6956017992541194,-0.7182981997087597
1782853703399916000,1.543916015625,-0.9731494513511657,0.7420515618704259,-0.7386568779308349
1782853703409900800,1.55390087890625,-0.6762877347141504,0.7696575078070164,-0.8369657879263163
1782853703419884800,1.563884765625,-0.43600247630178923,0.8312041556596755,-1.026074109070003
1782853703429869800,1.573869873046875,-0.2231499992161989,0.959964244955033,-1.145027820752561
1782853703439855000,1.583855224609375,-0.286345583319664,1.0339088212836534,-1.1333498771142214
1782853703449838800,1.5938388671875,-0.5080027136296034,0.9308419761713593,-1.0632547427553682
1782853703459824000,1.60382421875,-0.7051110936164856,0.7107137359291315,-0.9842470378182828
1782853703469809200,1.61380908203125,-0.7089099013775587,0.5128885129097849,-0.9499333378713577
1782853703479793200,1.623793212890625,-0.37125206397175786,0.4302752577614039,-0.9419169124152511
1782853703489778000,1.63377783203125,0.1966775873541832,0.4540473611561581,-0.8808858859345317
1782853703499763000,1.643762939453125,0.689181118556857,0.4926263173321262,-0.7624195193774997
1782853703509747000,1.653746826171875,1.0071119267076254,0.38818997396491467,-0.5961897137897089
1782853703519732000,1.66373193359375,1.1980752280682325,0.1947774162886664,-0.43757944329492743
1782853703529716000,1.673716064453125,1.5015093088328837,0.03175459918179549,-0.353224166784808
1782853703539701000,1.683700927734375,1.856238692548871,-0.09355122147384098,-0.23427273839088156
1782853703549686000,1.69368603515625,2.186973452693224,-0.1986061625302769,-0.12682267322568222
1782853703559670000,1.703669921875,2.4514637625575064,-0.32185083113871515,-0.029625834391638635
1782853703569655000,1.713655029296875,2.4314427187919616,-0.5082337824391201,0.11639807238299399
1782853703579639800,1.723639892578125,2.529185300141573,-0.6846629104800522,0.1408607883904129
1782853703589623800,1.733623779296875,2.612746211403608,-0.8209084601599722,0.14874924008529633
1782853703599608800,1.74360888671875,2.678082899188995,-0.943245603735745,0.15481493333242832
1782853703609593900,1.75359375,2.6819109330445525,-1.0386837075352668,0.1348792297627777
1782853703619577900,1.763577880859375,2.705205883914232,-1.0850815938338636,0.129425348271057
1782853703629563100,1.773563232421875,2.685699803933501,-1.1438535893414168,0.13970745363682507
1782853703639548200,1.783548095703125,2.518854460263252,-1.1919221122659742,0.12510993275735527
1782853703649532200,1.7935322265625,2.3287983368754386,-1.2844810073673725,0.10209485827498137
1782853703659517000,1.803516845703125,2.2258353905290362,-1.3565418888412415,0.0766495975036174
1782853703669502000,1.813501953125,2.2093448589771985,-1.3383615045063197,0.049799913294427095
1782853703679486000,1.82348583984375,2.1519372106254098,-1.2919378992445767,-0.0033884003292769193
1782853703689471000,1.833470947265625,1.9632032757520674,-1.272502254151553,-0.043876697257906196
1782853703699456000,1.8434560546875,1.7179513348430393,-1.3111371052332221,-0.11331946865525096
1782853703709440000,1.85343994140625,1.4354244330286978,-1.3562829456441103,-0.17993454234600065
1782853703719425000,1.863425048828125,1.2750731275528668,-1.704412054312229,-0.08847944376803935
1782853703729410000,1.87341015625,1.2056810268968343,-2.013658328486979,-0.24809677241351455
1782853703739394000,1.88339404296875,0.3892074073791504,-1.4556097274452446,-0.5155729662207886
1782853703749378800,1.89337890625,-0.322168591850996,-0.872313580161333,-0.44063083022218197
1782853703759363800,1.90336376953125,-0.4806260464042425,-0.8997382512468844,-0.33531083588823674
1782853703769347800,1.913347900390625,-0.5021779529988766,-1.2761121152117847,-0.2598977213770151
1782853703779332900,1.923332763671875,-0.7734744357466697,-1.6840195468857884,-0.18901720879413186
1782853703789318100,1.933318115234375,-0.7123486436545848,-2.120075068549067,-0.04107541263420134
1782853703799302000,1.943302001953125,-1.2575842326134443,-2.011608848611265,-0.01249400926157832
1782853703809287200,1.953287109375,-1.6377596077531575,-1.4714824193596838,0.1960740685030818
1782853703819271200,1.963271240234375,-1.326259709432721,-1.0588445981629193,0.32357918930128216
1782853703829256000,1.973255859375,-1.370688049224019,-0.8411036914486437,0.41249380961619314
1782853703839241000,1.983240966796875,-1.7716127824038266,-0.8122305020552129,0.46626390518322586
1782853703849225000,1.993224853515625,-2.197130105048418,-0.776072781676799,0.42251346465349193
1782853703859210000,2.0032099609375,-2.7200936564445493,-0.6897661519031971,0.2846219743974507
1782853703869195000,2.013195068359375,-3.1023920150876045,-0.5515317299610003,0.1698909219112247
1782853703879179000,2.023178955078125,-3.2789649720460177,-0.4018920803746208,0.11512238989137112
1782853703889164000,2.0331640625,-3.3741648831754922,-0.20128091643117366,0.07424743173271417
1782853703899149000,2.043149169921875,-3.6316970444649455,0.009004778906330465,0.14258169389888645
1782853703909133000,2.053133056640625,-3.8688872594714163,0.07456782279349863,0.30324279597625137
1782853703919117800,2.063117919921875,-4.001422337260842,-0.019738756225444375,0.5915980386178941
1782853703929102800,2.073102783203125,-4.011700570169091,-0.1412271740173921,0.8365880406551063
1782853703939086800,2.0830869140625,-3.9171751973003146,-0.1314633934373036,0.9777108409825712
1782853703949072000,2.09307177734375,-3.7114369361340995,-0.058637555472925304,1.0481568346057086
1782853703959057200,2.10305712890625,-3.2522815477818248,0.022895722419023514,1.080446992835775
1782853703969041000,2.113041015625,-2.697214300638437,0.20717476024273782,1.0820224985241889
1782853703979026200,2.123026123046875,-2.1148007814079524,0.46505277582779525,1.071162666335702
1782853703989011000,2.133010986328125,-1.6762047814816234,0.694180753475055,1.0475147373098879
1782853703998995000,2.142994873046875,-1.349441847577691,0.7840384998589753,1.085690665642917
1782853704008980000,2.15297998046875,-1.0870926413953304,0.6859186096295714,1.092200924319774
1782853704018965000,2.162965087890625,-0.8571428990364074,0.543141137430258,1.0438940625946969
1782853704028949000,2.172948974609375,-0.6451479155629873,0.45027913119643925,0.9759162857159972
1782853704038934000,2.18293408203125,-0.4108130899876356,0.4343273096311837,0.8840973953269422
1782853704048919000,2.1929189453125,-0.16905132928192615,0.4476945215307176,0.7665104419529437
1782853704058903000,2.202903076171875,0.09983516971468925,0.38918512248210607,0.6421603511195629
1782853704068888000,2.21288818359375,0.5146206704646349,0.3013833587799221,0.4061944172110408
1782853704078872800,2.222872802734375,0.9702209966838359,0.2753861632142216,0.11365670125298201
1782853704088856800,2.23285693359375,1.3705980328530072,0.310106178939715,-0.10430303584374487
1782853704098841900,2.242841796875,1.7391092736840248,0.33625600778385994,-0.16744557458572087
1782853704108827000,2.252826904296875,1.9927543644070624,0.36779081760197874,-0.16697255024649202
1782853704118811000,2.262810791015625,2.228704808485508,0.4796675766356289,-0.27281675111763176
1782853704128796000,2.2727958984375,2.419348960894346,0.5434648529592901,-0.3974140581777319
1782853704138781200,2.28278125,2.533375737568736,0.5123134895008057,-0.48891562624592333
1782853704148765200,2.29276513671875,2.49938754324913,0.5114453283641487,-0.28198855715394017
1782853704158750000,2.30275,2.5553911700218914,0.474291582685709,0.20752456006109712
1782853704168735000,2.31273486328125,2.8050311167567967,0.3144866590462625,0.7172891687966882
1782853704178719000,2.322718994140625,2.9775539215415714,0.12376125809475778,0.9985037459034473
1782853704188704000,2.3327041015625,3.014178309583664,-0.0729183750860393,1.0497161198116838
1782853704198688000,2.34268798828125,2.8036101440429686,-0.22505714801177382,0.9149782712809741
1782853704208673000,2.352673095703125,2.429030396953225,-0.2279930553331971,0.8050324803099036
1782853704218658000,2.362657958984375,1.9335855516016482,-0.10102145688980817,0.982510131023079
1782853704228642000,2.37264208984375,1.557938467541337,-0.06549611613079905,1.123805511438474
1782853704238627000,2.382626953125,1.4653975464880467,-0.0918397870466113,1.0418510124597697
1782853704248611800,2.39261181640625,1.4961644406735897,0.013325930041074753,0.9075755938090383
1782853704258595800,2.402595947265625,1.5503092878371476,0.32181744032576676,0.8051599791470915
1782853704268580900,2.412580810546875,1.636649016162753,0.7312114572957158,0.6404536933321505
1782853704278566000,2.42256591796875,1.659172982659936,1.1040716871164737,0.4569421327495947
1782853704288550000,2.4325498046875,1.5455781676620244,1.3064026240572333,0.24454043163880704
1782853704298535000,2.442534912109375,1.1540589762091635,1.268330229163915,0.0871421490159817
1782853704308520200,2.452520263671875,0.6842360633701086,1.1170859208598731,0.12359146361895836
1782853704318504200,2.462504150390625,0.2775648954927921,0.845712135092169,0.29586127089019865
1782853704328489000,2.472489013671875,-0.6500351030826568,0.5575383134320377,0.025331461665965616
1782853704338474000,2.482473876953125,-1.380499833664298,0.30857275882735846,-0.02230014941236004
1782853704348458000,2.4924580078125,-1.1935416762918234,0.2464808981820941,0.5415537221083417
1782853704358446600,2.502446533203125,-0.5564712687224149,0.24986177279204128,0.824186239721626
1782853704368431600,2.512431640625,-0.03870762405693531,0.3795113582730293,0.7550539590455592
1782853704378415600,2.52241552734375,-0.0039022681355476378,0.6452332557588816,0.5509439932009205
1782853704388400600,2.532400634765625,-0.4551595967143774,0.8643848329886794,0.38649095149468626
1782853704398385400,2.542385498046875,-1.1237193675249815,0.9000956133171916,0.25537834425643086
1782853704408369700,2.55236962890625,-1.80375914824903,0.7607754054322838,0.14158932186067102
1782853704418354400,2.5623544921875,-2.3114181630074975,0.6424529773905873,0.20093977484330533
1782853704428339500,2.57233935546875,-2.5314281106323,0.6092106330022216,0.33100714734494685
1782853704438323500,2.582323486328125,-2.81032103985846,0.5122720615118742,0.2680309781458229
1782853704448308500,2.59230859375,-3.1170658526062964,0.36255467051416634,0.41368046211749315
1782853704458293800,2.602293701171875,-3.282563288798928,0.16519406933188438,0.41240671585462985
1782853704468277500,2.612277587890625,-3.410308794224262,0.06427694959938526,0.1780019668482244
1782853704478262800,2.6222626953125,-3.617581425350904,0.014175532607734203,0.015003946255892514
1782853704488247600,2.63224755859375,-3.632604222437739,-0.030301030239462852,-0.1157763968206942
1782853704498231600,2.6422314453125,-3.3416642970651385,0.042352118039131165,-0.12447934323623776
1782853704508216600,2.652216552734375,-3.0403841794639823,0.12334361720457672,0.04418430190235376
1782853704518201600,2.66220166015625,-2.7379467085212466,0.1883693393446505,0.3390031145349145
1782853704528185600,2.672185546875,-2.3171534917891026,0.23660993090048432,0.6294643895450979
1782853704538170600,2.682170654296875,-1.8493483485132454,0.26904388151541353,0.7670440373729914
1782853704548155600,2.69215576171875,-1.474738206285238,0.346612274364382,0.7015485788293182
1782853704558139600,2.7021396484375,-1.197690028142929,0.5135262993566692,0.4627013173308223
1782853704568124400,2.71212451171875,-0.8146504957437515,0.71149991787076,0.0930913214776665
1782853704578109400,2.722109375,-0.49469782637655735,0.9083720048837364,-0.2809218777704984
1782853704588093400,2.732093505859375,-0.36159634687602515,1.053325688610971,-0.49923912306800483
1782853704598078500,2.742078369140625,-0.3631996904194355,1.0330765351779758,-0.5537790339637547
1782853704608063500,2.7520634765625,-0.32864041821360584,0.9051730627119541,-0.5681962663728743
1782853704618047500,2.762047607421875,-0.12007716275453567,0.8275779279865324,-0.6675277243491262
1782853704628032500,2.772032470703125,0.1721241608560085,0.7936798961684107,-0.7344285927113146
1782853704638017500,2.782017578125,0.4743757538378238,0.8101198665767908,-0.7320880209345371
1782853704648001800,2.792001708984375,0.7648679354429244,0.8384056114710867,-0.5993444880262017
1782853704657986600,2.801986572265625,1.1033125393122434,0.7856609864942729,-0.4366413587272167
1782853704667970600,2.811970458984375,1.450137433513999,0.6797760152213275,-0.32692572325021024
1782853704677955600,2.82195556640625,1.7647423121124506,0.5540145232200622,-0.22669242106340826
1782853704687940600,2.831940673828125,2.0424884093910456,0.4019453083992004,-0.18454678538180885
1782853704697924600,2.841924560546875,2.308207968789339,0.2428347967647016,-0.13381992996819317
1782853704707909600,2.85190966796875,2.483363460165262,0.09057575846016407,-0.07489734700880944
1782853704717894700,2.861894775390625,2.519904261577129,-0.03933715413212776,-0.05358626343272626
1782853704727878700,2.871878662109375,2.468805357980728,-0.2114426102876663,0.06888042480684817
1782853704737863400,2.881863525390625,2.3777508760929105,-0.42533100629225373,0.18462014287896453
1782853704747848400,2.891848388671875,2.2658114270865917,-0.5803333519555628,0.20754976756758986
1782853704757832400,2.90183251953125,2.2101059064775703,-0.5854410503581166,0.15668028881289064
1782853704767817500,2.9118173828125,2.292151737001538,-0.5394201806783676,0.014685527956485747
1782853704777802500,2.921802490234375,2.4064579151391983,-0.4764508065462112,-0.09676277653202414
1782853704787786500,2.931786376953125,2.4644202747642994,-0.407977574300766,-0.15488734098151324
1782853704797771500,2.941771484375,2.4085738843798636,-0.4035528897263109,-0.20211999760381877
1782853704807756500,2.951756591796875,2.2003683563172816,-0.5193816012561321,-0.25121092237867415
1782853704817740800,2.96174072265625,1.9689011951327322,-0.6829791951768099,-0.2979049420796335
1782853704827725600,2.9717255859375,1.7820073351681232,-0.8357894376233219,-0.2588387869086116
1782853704837710600,2.981710693359375,1.4879121606349943,-1.0311774235583842,-0.16313841544371097
1782853704847694600,2.991694580078125,1.1601432645589111,-1.181224046510458,-0.06415566130727529
1782853704857679600,3.0016796875,0.9228338070869445,-1.2631281304761766,-0.037439796078205106
1782853704867664600,3.01166455078125,0.7164689384549856,-1.2806136644147337,0.007964987529814243
1782853704877648600,3.021648681640625,0.5154910235583782,-1.2439352080978452,-0.05839417517110705
1782853704887633700,3.031633544921875,0.3590571837872267,-1.1688920959427953,-0.22852526251375674
1782853704897618400,3.041618408203125,0.21957038716375826,-1.0700566778551786,-0.39526615942884236
1782853704907602400,3.0516025390625,0.10051087701916694,-0.9581994272395968,-0.4837070247521624
1782853704917587500,3.06158740234375,-0.047294250616431235,-0.8981329349420965,-0.38808749997112896
1782853704927572500,3.071572509765625,-0.27635551970303057,-0.9568032236408441,-0.11697174408510326
1782853704937556500,3.081556396484375,-0.5806856725245714,-1.0631796316925435,0.13100487254746257
1782853704947541500,3.09154150390625,-0.9712602766036986,-1.0876853465914726,0.15402977430410683
1782853704957526500,3.101526611328125,-1.2054910572826862,-1.0409756909299641,-0.0690440544033423
1782853704967510500,3.111510498046875,-1.2730787388652562,-0.8436282414902001,-0.1195866027586162
1782853704977495600,3.12149560546875,-1.4870821395516394,-0.5616517401002347,-0.0971926193166524
1782853704987480600,3.13148046875,-1.9691466943264007,-0.36425182982087134,-0.02400393938925117
1782853704997464600,3.141464599609375,-2.487276249694824,-0.3225115600697696,0.07613956562224775
1782853705007449600,3.15144970703125,-2.7340777581334113,-0.39002135411053895,0.17676756621506065
1782853705017434600,3.1614345703125,-2.678603708192706,-0.41632556979879737,0.3017068185806274
1782853705027418600,3.171418701171875,-2.3182705131202934,-0.2840317534193396,0.36446908930074423
1782853705037403600,3.181403564453125,-1.8735954855412245,-0.047171939411014316,0.36590580757297575
1782853705047387600,3.1913876953125,-1.7086913390666245,0.22286606770828365,0.32484909963924435
1782853705057372700,3.20137255859375,-1.9158774609535931,0.36386575311273334,0.2520945368127897
1782853705067357400,3.211357421875,-2.165088953143358,0.28466128349453207,0.2171295333502814
1782853705077341400,3.221341552734375,-2.279998357871175,0.05760273253247142,0.2765279901931062
1782853705087326500,3.231326416015625,-2.438683775961399,-0.08211933415159582,0.44553259425647557
1782853705097311500,3.2413115234375,-2.593466341394186,-0.07694573090597986,0.5953963714549317
1782853705107295500,3.25129541015625,-2.416924364095926,0.0014841010779142378,0.7065528168573976
1782853705117280500,3.261280517578125,-1.9849498281359672,0.10557912019416689,0.7648717348352074
1782853705127265500,3.271265625,-1.4763509021788834,0.23718656174466013,0.7255993165023624
1782853705137249500,3.28124951171875,-1.0763777706354856,0.4422255886003375,0.670656158567965
1782853705147234600,3.291234619140625,-0.9367126948356628,0.5584645614314824,0.641246451145038
1782853705157219600,3.301219482421875,-0.8840320750057696,0.5592568077877164,0.5826133891841396
1782853705167203600,3.31120361328125,-0.8235264606386422,0.4690642764914781,0.5586452882932499
1782853705177188600,3.321188720703125,-0.7912374714523553,0.35004648659676313,0.5616373827813192
1782853705187173600,3.331173583984375,-0.6935860755175351,0.25428981836736203,0.5684747179880738
1782853705197157600,3.34115771484375,-0.4254226300984621,0.23554405523464084,0.5032516466449946
1782853705207142700,3.351142578125,-0.08309855444729328,0.28401246419698,0.4068697591893375
1782853705217127700,3.361127685546875,0.22525661610662936,0.32546529530882834,0.3507930671803653
1782853705227111700,3.371111572265625,0.4771387888103723,0.3067867521934211,0.3329226621100679
1782853705237096400,3.381096435546875,0.6549310584306717,0.2212968456301838,0.33393373884875327
1782853705247081500,3.39108154296875,0.7784574848562479,0.13926913528479634,0.2697566328946501
1782853705257065500,3.4010654296875,0.8985738105773925,0.028098405628651377,0.21034677787497638
1782853705267050500,3.411050537109375,1.0606687448501586,-0.05155329630039632,0.1956994630370289
1782853705277035500,3.421035400390625,1.2415180639535188,-0.03496902205049991,0.21618063512761146
1782853705287019500,3.43101953125,1.4954630144059657,-0.005528992554545403,0.26573108543930574
1782853705297004500,3.441004638671875,1.8393138612329958,0.02745506622381508,0.2724622203252278
1782853705306988500,3.450988525390625,2.106125307521224,0.07412051741741597,0.2845529094829224
1782853705316973600,3.4609736328125,2.262310140967369,0.07174604337103664,0.3126904963444918
1782853705326958600,3.47095849609375,2.368561022943258,-0.02231828785724938,0.281394481984619
1782853705336942600,3.480942626953125,2.43002817581892,-0.1915849403902888,0.31530831416007127
1782853705346927600,3.490927734375,2.4675533120930195,-0.34877485922574997,0.3430843194339424
1782853705356908000,3.500907958984375,2.447135962486267,-0.44852520020119846,0.37710225130468605
1782853705366892000,3.51089208984375,2.3656758228957653,-0.5004649385359138,0.4483535334287211
1782853705376877000,3.520876953125,2.162690075308084,-0.5219591966591776,0.5112901012698188
1782853705386862000,3.530862060546875,1.9729203676462173,-0.5965769960742443,0.4823799773994833
1782853705396846000,3.54084619140625,1.8702812464267013,-0.6752410752054303,0.4406595813926309
1782853705406831000,3.5508310546875,1.9188544309377669,-0.5956576892722397,0.41240262420140206
1782853705416815900,3.56081591796875,1.9799942515552043,-0.35899230185747144,0.4104951831448823
1782853705426800000,3.570800048828125,1.8802666338682175,-0.15503537115007637,0.420432676324062
1782853705436785200,3.58078515625,1.6244851156383753,-0.06982245489731431,0.4474857010856271
1782853705446770200,3.590770263671875,1.2152028884798287,-0.12756379218287764,0.47685149630159135
1782853705456754200,3.600754150390625,0.779369339004159,-0.27415041087418796,0.4707214691139757
1782853705466739200,3.6107392578125,0.37135318625867364,-0.3713103700302541,0.4496773659110069
1782853705476724200,3.62072412109375,0.014842179822921752,-0.40742257076650856,0.4545549453521147
1782853705486708200,3.630708251953125,-0.28490415233969685,-0.39371202532202004,0.47757378269415346
1782853705496693200,3.640693359375,-0.5177051924765109,-0.3717299106165767,0.5116049759052693
1782853705506678000,3.650677978515625,-0.7896101625114679,-0.3288330181762576,0.5377484846064821
1782853705516662000,3.660662109375,-1.01831195063591,-0.22801826283968984,0.5623574406841769
1782853705526647000,3.67064697265625,-1.2501175499945878,-0.1350345664549619,0.5401183920755982
1782853705536632000,3.680632080078125,-1.5825585295349358,-0.058885392754152416,0.5038066136466339
1782853705546616000,3.690615966796875,-1.8896599006354808,0.02924808712042868,0.42726062264796344
1782853705556601000,3.70060107421875,-2.1632027010053396,0.20940547843687235,0.2825421724487096
1782853705566585000,3.710585205078125,-2.383023848059773,0.440963898101449,0.11594462952706962
1782853705576570000,3.720570068359375,-2.6531676536411046,0.651363209881261,-0.030181924771284684
1782853705586555000,3.730554931640625,-2.834139137819409,0.7213146249204874,-0.15490135124055668
1782853705596539100,3.7405390625,-2.9086504811853167,0.6314612624507397,-0.2854242306910455
1782853705606524000,3.75052392578125,-2.91653392791152,0.4638603511728346,-0.406673432899639
1782853705616509200,3.76050927734375,-3.010895050129294,0.4040536788552999,-0.46387635245956477
1782853705626493200,3.7704931640625,-3.1228859370619055,0.4832056145686656,-0.496873489915207
1782853705636478200,3.780478271484375,-3.1764696432113646,0.5230803827088326,-0.5016513718415051
1782853705646463200,3.790463134765625,-3.1385452784866095,0.4623636828742921,-0.5366443592894822
1782853705656447200,3.800447265625,-3.056664867657423,0.36706228413172065,-0.568851515411213
1782853705666432300,3.810432373046875,-2.8676901097655296,0.34618608484156427,-0.5209693453716114
1782853705676417000,3.8204169921875,-2.557232998496294,0.3707671299990266,-0.3544627321364358
1782853705686401000,3.830401123046875,-2.1729548642128704,0.3540785916570574,-0.19229946360150352
1782853705696386000,3.840385986328125,-1.7086533451437949,0.36605917150378225,-0.18658048316650092
1782853705706371000,3.85037109375,-1.2027040569126606,0.44669849623069163,-0.24074823628161102
1782853705716355000,3.86035498046875,-0.7506243060350417,0.5717050051461905,-0.29447003572750835
1782853705726340000,3.870340087890625,-0.48194765039682386,0.6370397201701998,-0.4138572799891233
1782853705736325000,3.8803251953125,-0.24604747520089149,0.6192841371186077,-0.5563347463285551
1782853705746309000,3.89030908203125,-0.03529226265549659,0.5507305696459487,-0.725608157395944
1782853705756294000,3.9002939453125,0.0650637160629034,0.4391839558821171,-0.7822794542971998
1782853705766278100,3.910278076171875,0.2538239544212818,0.2979568183973431,-0.7927479490805417
1782853705776263000,3.920262939453125,0.5438000031977892,0.21034034813418984,-0.7958226803507655
1782853705786248200,3.930248291015625,0.8476473409384488,0.22725228343587367,-0.7536672539275139
1782853705796232200,3.940232177734375,1.1864210306316614,0.3096307799803093,-0.6931677039749919
1782853705806217200,3.95021728515625,1.532003231295943,0.3189746546478942,-0.5972587312607094
1782853705816202200,3.9602021484375,1.7462988929271697,0.2155429948111996,-0.4263247665699571
1782853705826186200,3.970186279296875,1.8722499161511659,0.053388220109976826,-0.2703871493505314
1782853705836171300,3.980171142578125,1.9930887109279631,-0.06316818463988602,-0.14034716717931442
1782853705846156000,3.990156005859375,2.071205969831347,-0.14210706212446092,-0.027417506125825455
1782853705856139300,4.00013916015625,2.143275765264034,-0.24656565385609863,-0.0002951378885190934
1782853705866124000,4.0101240234375,2.252098543554544,-0.3746081694666296,0.0026892756165936586
1782853705876109000,4.020109130859375,2.3515444216907024,-0.5301133866181597,0.03170526188104413
1782853705886093000,4.030093017578125,2.45831961980164,-0.633203941399604,0.043290700363763604
1782853705896078000,4.040078125,2.5095792669177053,-0.6888442878179252,0.057795633889222514
1782853705906063000,4.05006298828125,2.5037580134183166,-0.7053558621577918,0.08585620999182574
1782853705916047000,4.060047119140625,2.551078567519784,-0.7385819860637187,0.03248864907738752
1782853705926032100,4.0700322265625,2.5242548580020663,-0.792334619039297,-0.05717451544934883
1782853705936017200,4.08001708984375,2.411743746587634,-0.8008714881729334,-0.08212917969217523
1782853705946001200,4.090001220703125,2.1887048065304753,-0.8310176931768656,-0.07646352774645201
1782853705955986000,4.09998583984375,1.8937696740418672,-0.893546264738962,-0.0410073478000937
1782853705965970000,4.109969970703125,1.7011814018279312,-0.9938265478726476,-0.014363116185262332
1782853705975955000,4.119954833984375,1.6295833155602215,-1.0316683488804845,0.021483147640782407
1782853705985940200,4.129940185546875,1.543678471520543,-1.0000647846750914,0.04342358776212204
1782853705995924000,4.139924072265625,1.384824711126089,-0.9501934501122683,-0.0007292047571158037
1782853706005909200,4.1499091796875,1.1875281150907278,-0.9565527560111134,-0.07072001565839163
1782853706015894300,4.159894287109375,0.9851064311265945,-0.9888504399605095,-0.1308831641302444
1782853706025878300,4.169878173828125,0.8085662073940039,-1.007652755586058,-0.13958896009000019
1782853706035863000,4.179863037109375,0.5853150858908891,-0.9888356077175586,-0.14878826605458742
1782853706045848000,4.18984814453125,0.27960370784401894,-0.921360008207336,-0.0856296072948724
1782853706055832000,4.19983203125,-0.1117237604290247,-0.9010985798146575,-0.016666271711234002
1782853706065817000,4.209817138671875,-0.38378947398364543,-0.8753170728262514,-0.04362990115629509
1782853706075802000,4.219802001953125,-0.6435796433329581,-0.8037887638591229,-0.005540262867230921
1782853706085786000,4.2297861328125,-0.8710638723611831,-0.6887796250838786,0.08142306811627932
1782853706095771100,4.239771240234375,-0.9167050950735807,-0.6354447791289538,0.1051808415915817
1782853706105755100,4.249755126953125,-0.8327163137882947,-0.642571416138485,0.16882831591470165
1782853706115740200,4.259740234375,-0.8232213402122258,-0.6182461723729967,0.28825773708391933
1782853706125725000,4.269724853515625,-1.0688251632988452,-0.5615811590820551,0.41115792136993257
1782853706135709000,4.279708984375,-1.3945114078819751,-0.5335714546501636,0.4459294846195727
1782853706145694000,4.28969384765625,-1.7626748581886291,-0.5035731336843222,0.4342481799803674
1782853706155679000,4.299678955078125,-2.2271651778280734,-0.47351029611490664,0.36996355853118
1782853706165663000,4.3096630859375,-2.6627012056618926,-0.44306656946912404,0.315987492063269
1782853706175648300,4.319648193359375,-2.988786094173789,-0.38894408026784655,0.19649525305721907
1782853706185633300,4.32963330078125,-3.1091444119572635,-0.2871672019008547,-0.03770900494102388
1782853706195617300,4.3396171875,-3.0864924351662397,-0.14621150176860392,-0.2927575327211991
1782853706205602000,4.34960205078125,-2.9718899044305083,0.012895064343139528,-0.46697841012813146
1782853706215587000,4.359587158203125,-2.902852024039626,0.18402590331286192,-0.49722445877734567
1782853706225571000,4.369571044921875,-2.880938298395276,0.2535255559965968,-0.4017175640579313
1782853706235556000,4.37955615234375,-2.8126667262017726,0.21593970251120626,-0.1985952392774634
1782853706245541000,4.389541015625,-2.7370348543733356,0.17919190728515386,0.06801160608306527
1782853706255525000,4.399525146484375,-2.4820026932060717,0.16833258655332028,0.2927878182616085
1782853706265510100,4.40951025390625,-2.0408897420227525,0.20077099414765834,0.469422953736037
1782853706275495200,4.4194951171875,-1.5103952105998992,0.2749573433429003,0.5748182052632793
1782853706285479200,4.429479248046875,-1.1876491111218928,0.3535344017777592,0.6486136919774115
1782853706295464000,4.4394638671875,-0.9461322650879621,0.3644221814190969,0.6225966957326978
1782853706305448000,4.449447998046875,-0.7366302674740552,0.29675938877370206,0.5789536976328119
1782853706315433000,4.459432861328125,-0.6189736098647117,0.26810912141595034,0.5123865182043984
1782853706325418000,4.46941796875,-0.6023778643727302,0.2960187995394692,0.46285617909897114
1782853706335402000,4.479402099609375,-0.6165531047195196,0.2559674692559987,0.44829931902345266
1782853706345387300,4.48938720703125,-0.4789098901361227,0.1644611154148355,0.3894326309697702
1782853706355372300,4.499372314453125,-0.15990414623022078,0.08592720200195908,0.27658611358851193
1782853706365356000,4.50935595703125,0.28589959311783314,0.10132317978274076,0.18016802230831236
1782853706375341000,4.519341064453125,0.7337666947364807,0.19594978453628717,0.2138312772561796
1782853706385325800,4.529325927734375,1.0805495033621788,0.2577178931199014,0.26122301516402513
1782853706395309800,4.539309814453125,1.2899421953827142,0.19382723942436278,0.2839007291845046
1782853706405294800,4.549294921875,1.4290110588550566,0.07376732006557285,0.22340452196653932
1782853706415279900,4.55927978515625,1.5978618971288203,-0.08039397166371345,0.16103848402239382
1782853706425263900,4.569263916015625,1.7429454908460378,-0.20324710193760692,0.19042355019440874
1782853706435249000,4.579248779296875,1.8840034823089837,-0.27608050215393304,0.21478623989345505
1782853706445233000,4.58923291015625,2.013009216928482,-0.3658003013718873,0.20664384997012092
1782853706455218000,4.599218017578125,2.182806396141648,-0.3736338445417583,0.20906435511531307
1782853706465205000,4.609205078125,2.371006078007817,-0.34971060570590196,0.23783680581431835
1782853706475190000,4.61918994140625,2.564374102422595,-0.2779563790284097,0.27359261259464546
1782853706485174000,4.629174072265625,2.7503105155318974,-0.17181451038494705,0.2436706265343353
1782853706495158800,4.63915869140625,2.901529835525155,-0.1111412113007158,0.23034458689540624
1782853706505143800,4.649143798828125,2.9628426746219394,-0.05888678099364042,0.22574728570040314
1782853706515127800,4.6591279296875,2.803154216969013,-0.07937332337908447,0.25267556983744727
1782853706525112800,4.66911279296875,2.57700912759006,-0.14214103745929896,0.2117950769871473
1782853706535096800,4.679096923828125,2.404185294032097,-0.20382431730367243,0.12007961043994873
1782853706545081900,4.689081787109375,2.153694283425808,-0.24938093047253787,0.14478457423802465
1782853706555067000,4.69906689453125,1.9481003991663455,-0.27984767266772687,0.15254233049163593
1782853706565051000,4.70905078125,1.7330957124829292,-0.2710251184605062,0.16730543546266852
1782853706575036200,4.7190361328125,1.4444056118637323,-0.23179485876895486,0.22349534205514937
1782853706585021000,4.72902099609375,1.1584236011594533,-0.21140381264723837,0.357798562028259
1782853706595005000,4.7390048828125,0.8847603892803192,-0.23976963704042134,0.5155357394829392
1782853706604990000,4.748989990234375,0.526149780216813,-0.29295572217442095,0.6312420667421073
1782853706614975000,4.75897509765625,0.08967325666248797,-0.26994119568131864,0.6189386846818029
1782853706624959000,4.768958984375,-0.10530220294892788,-0.12546703909933565,0.5155748659169301
1782853706634944000,4.778944091796875,-0.17701251741945742,0.07728022355735302,0.4288065734483301
1782853706644929000,4.788928955078125,-0.40695816812515256,0.2144716027200222,0.42009051182288676
1782853706654913000,4.7989130859375,-0.8423053953886032,0.2694995893936604,0.4635995813447982
1782853706664897800,4.808897705078125,-1.426143978986144,0.26276443591974674,0.43173546650707717
1782853706674882000,4.818882080078125,-1.9907775113761423,0.28975276141464706,0.39143863702993836
1782853706684866800,4.82886669921875,-2.5000661731630562,0.36805582521371544,0.3327217692431062
1782853706694851800,4.838851806640625,-2.8641829784274098,0.50879240270257,0.21578553486280141
1782853706704835800,4.8488359375,-3.1455659709036348,0.7045991985715925,-0.0802299219421111
1782853706714820900,4.85882080078125,-3.432476786890626,0.8254804442506283,-0.36196280556824056
1782853706724806000,4.868805908203125,-3.6566672350704668,0.8404197277724742,-0.6543173104465008
1782853706734790000,4.878789794921875,-3.64039823731482,0.7420067728806287,-0.876446442182362
1782853706744775200,4.888775146484375,-3.5178830337584017,0.6141892251323908,-0.9980370782397687
1782853706754760000,4.898760009765625,-3.376721581920981,0.5556560798820108,-1.0484173121728002
1782853706764744000,4.908743896484375,-3.361011387091875,0.5702824980624019,-1.068089688631147
1782853706774729000,4.91872900390625,-3.4826883862584825,0.5272372831925749,-1.0445642900064587
1782853706784714000,4.9287138671875,-3.633414369776845,0.2972301115579903,-1.0624214337363838
1782853706794698000,4.938697998046875,-3.75504051553905,-0.0028637188680469988,-1.049683971107751
1782853706804683000,4.94868310546875,-3.6807553821444507,-0.1619726961325854,-0.90460468823947
1782853706814667000,4.9586669921875,-3.4230174691498276,-0.1975723077042028,-0.6417682830620557
1782853706824652000,4.968652099609375,-3.1362223884969946,-0.176453349166736,-0.46209392602220173
1782853706834636800,4.97863671875,-2.679054959091544,-0.0483289274264127,-0.5041156065305694
1782853706844621000,4.98862109375,-2.119340178403258,0.2172259429294616,-0.6088659842830151
1782853706854605800,4.998605712890625,-1.6361825676947832,0.5776770652931184,-0.7641456855829805
1782853706864590800,5.0085908203125,-1.1869599598139524,0.8211843544919043,-0.981915380000323
1782853706874574800,5.018574951171875,-0.7350351072371005,0.8715880423657596,-1.0889327893693
1782853706884560000,5.028559814453125,-0.5463491031587123,0.7610719041608274,-1.0141079230748116
1782853706894545000,5.038544921875,-0.4322048375844955,0.5216166668318212,-0.887914469397068
1782853706904529000,5.04852880859375,-0.20074585970640182,0.2757806789571419,-0.7565598335638641
1782853706914514000,5.058513916015625,0.18261515973210335,0.14624080092832445,-0.6727380794085562
1782853706924498000,5.068497802734375,0.6422498560339212,0.12328757616840302,-0.5699440964208915
1782853706934483000,5.07848291015625,1.1239034919202326,0.14917594106476753,-0.4684928698116913
1782853706944468000,5.088468017578125,1.5304706149011849,0.12704312930963932,-0.3771897834576666
1782853706954452000,5.098451904296875,1.87058227519989,0.06214359083250165,-0.2557187734582461
1782853706964437000,5.10843701171875,2.1808324657201767,0.00482749322168529,-0.12261693776468746
1782853706974422000,5.118422119140625,2.448092824819684,-0.05935870935432613,-0.008124425008380785
1782853706984406000,5.128406005859375,2.608534731188416,-0.07166808276399969,0.03562752249184996
1782853706994391000,5.13839111328125,2.6959336131781337,-0.07330094466283917,0.046629128638049584
1782853707004375800,5.148375732421875,2.778814140960574,-0.10329203217029571,0.056398886867775576
1782853707014360000,5.158360107421875,2.9165847813159225,-0.15404000343717633,0.009750363976089284
1782853707024344800,5.1683447265625,3.010665917548537,-0.23349041064046322,-0.02520807274831459
1782853707034329900,5.178329833984375,3.0808120514422654,-0.33749745921231805,-0.02270944259930402
1782853707044313900,5.18831396484375,3.1284926710277796,-0.4271010847046971,0.023779756978247312
1782853707054299000,5.198298828125,3.1419968802452085,-0.4961456140320748,0.08417529856702312
1782853707064283000,5.208282958984375,3.1874341048181054,-0.5645384014524519,0.1171724542889744
1782853707074268000,5.218267822265625,3.200565973591804,-0.6190854727413505,0.10459379895124583
1782853707084253000,5.2282529296875,3.0924247478246687,-0.6428326243579388,0.06198604391692206
1782853707094237000,5.23823681640625,2.9023545959115027,-0.6502800177544354,-0.030200620338600128
1782853707104221700,5.2482216796875,2.666053438699245,-0.6520129059616476,-0.12161812685253098
1782853707114207000,5.25820703125,2.3699013316363096,-0.6691241266950965,-0.19326092904480174
1782853707124191000,5.26819091796875,2.0344839666336774,-0.6823091138955205,-0.24195023248251527
1782853707134176000,5.278176025390625,1.8342209220081567,-0.6546841709975153,-0.28927202869299795
1782853707144161000,5.2881611328125,1.685258441030979,-0.5946270310502499,-0.27715730107259
1782853707154145000,5.29814501953125,1.5998182918936013,-0.5327745321188122,-0.2811321960529312
1782853707164130000,5.308130126953125,1.5281594153493643,-0.4965339557625353,-0.20841199215380474
1782853707174114800,5.31811474609375,1.3173165245205163,-0.518178289880976,-0.04113544485890306
1782853707184099000,5.32809912109375,0.96081370139122,-0.5807359414070844,0.09578578472603112
1782853707194083800,5.338083740234375,0.5854314057469368,-0.6578929039109498,0.10506802886687218
1782853707204067800,5.34806787109375,0.2669511470198631,-0.7047637414835393,0.06017735052714124
1782853707214052900,5.358052978515625,0.1556470733076334,-0.7120741375621408,0.06892098514609969
1782853707224038000,5.368037841796875,0.008431143736839295,-0.6878677709359675,0.150536397496704
1782853707234022000,5.37802197265625,-0.1876841335594654,-0.6234914526153356,0.2482179511077702
1782853707244007000,5.3880068359375,-0.4662462233960628,-0.486922370069474,0.299266129163932
1782853707253992000,5.397991943359375,-0.7318278356283903,-0.24928857601396737,0.2764371518381871
1782853707263976000,5.407975830078125,-1.0539064111083745,-0.028016499498859045,0.26582895632321013
1782853707273960700,5.417960693359375,-1.5738362938970327,0.13919628924429417,0.2409756518293172
1782853707283946000,5.427946044921875,-2.257470299720764,0.12526822859160602,0.3035086255718954
1782853707293930000,5.437929931640625,-2.8072411940217017,0.0017876140691339968,0.4007428007416427
1782853707303915000,5.4479150390625,-3.033546442398429,-0.10053118915483356,0.40460020682215686
1782853707313899000,5.45789892578125,-2.966765401023626,-0.09271788505539298,0.2599013746388256
1782853707323884000,5.467884033203125,-2.8794588734924793,-0.010979951436817646,0.09131627462916075
1782853707333869000,5.477869140625,-3.0147850433051584,0.14295980649627743,-0.07972049284894019
1782853707343853000,5.48785302734375,-3.277180426716804,0.25231194242313504,-0.2792848328868858
1782853707353838000,5.497838134765625,-3.5391076080948114,0.20661255978271365,-0.4855894409652799
1782853707363824600,5.50782470703125,-3.849985575124621,0.13501125864461064,-0.5986121186310425
1782853707373808600,5.51780859375,-4.110777614992856,0.1459859493844211,-0.5798105701904743
1782853707383793700,5.527793701171875,-4.181384352135658,0.20982143882662058,-0.49680875411592423
1782853707393778700,5.53777880859375,-4.0709611529111855,0.1690233452964574,-0.2462345222055912
1782853707403762700,5.5477626953125,-3.5820115147978067,0.05791804555933922,0.01908009138731286
1782853707413747500,5.55774755859375,-2.7443501458227635,0.13368395556360482,0.10509698096672072
1782853707423731500,5.5677314453125,-1.935351976752281,0.4760171278366819,0.08049894814183935
1782853707433716500,5.577716552734375,-1.5216922651618718,0.8333430673845111,0.08480683793621137
1782853707443701500,5.587701416015625,-1.309715401867032,0.8799592726089059,0.07279646573942154
1782853707453685500,5.597685546875,-1.1938561490684747,0.5751064841527491,0.10479217106755823
1782853707463670500,5.60767041015625,-1.2156728440791367,0.2296185741757974,0.24091480675386265
1782853707473655600,5.617655517578125,-1.0734066458702087,0.010223470513708888,0.3860865719448775
1782853707483639600,5.6276396484375,-0.6155296068906784,-0.043081966683641074,0.4176357025492936
1782853707493624600,5.63762451171875,0.0034691374152898786,0.043769437491148706,0.28891563473707066
1782853707503609600,5.647609619140625,0.5266840332239866,0.18151355516575277,0.12854416325604542
1782853707513593600,5.657593505859375,0.9029963031947612,0.2687645165847614,0.009155950880050659
1782853707523578600,5.66757861328125,1.1861281851649284,0.2550507197372615,-0.03407688638321124
1782853707533562600,5.677562744140625,1.334848089557886,0.2319961900273338,-0.03671693429690785
1782853707543547600,5.687547607421875,1.4372691841125487,0.17786087787710128,-0.019715311417775227
1782853707553532700,5.69753271484375,1.5148457602679728,0.051879824841022486,0.06616718379277736
1782853707563516700,5.7075166015625,1.596618619069457,-0.13404789350517093,0.23688217197060585
1782853707573501700,5.717501708984375,1.706241607826948,-0.25249029466472567,0.4117695139296353
1782853707583486500,5.727486572265625,1.8737766873270272,-0.28647695461437106,0.5642448253333568
1782853707593470500,5.737470458984375,2.000522660320997,-0.26881796380504963,0.6641904696851968
1782853707603455500,5.74745556640625,2.2445979586660862,-0.22871523212790487,0.6582976122543215
1782853707613440500,5.7574404296875,2.4709914698481557,-0.1484055777467787,0.6145587890971451
1782853707623424500,5.767424560546875,2.5037825633376833,-0.06858757934011518,0.5554722112150863
1782853707633409500,5.777409423828125,2.4497651419460773,-0.05091609437540173,0.4509075652930885
1782853707643393500,5.7873935546875,2.4627280838936567,-0.15190613321363924,0.3350317997511476
1782853707653378600,5.797378662109375,2.3310715425044295,-0.31165085109844803,0.2782119977572933
1782853707663363600,5.807363525390625,2.1842121712863443,-0.4626173653744161,0.2830816496202722
1782853707673347600,5.81734765625,2.0577935305505988,-0.5681575417976826,0.3464753501117229
1782853707683332600,5.82733251953125,1.9312439569115638,-0.5996695552621036,0.3324956323370337
1782853707693317600,5.837317626953125,1.8509949466764926,-0.557909192571044,0.3657031246077269
1782853707703301600,5.847301513671875,1.8282927010029553,-0.49599488044977186,0.38892369506694374
1782853707713286700,5.85728662109375,1.8428414508372544,-0.4215008535448462,0.4350014095004648
1782853707723271700,5.867271728515625,1.6287877812683582,-0.37343634920828045,0.5085728051351383
1782853707733255700,5.877255615234375,1.3234627721905707,-0.368339537525922,0.6127903546525165
1782853707743240700,5.88724072265625,0.9568921440333127,-0.4015693877588957,0.7343084734629839
1782853707753224700,5.897224609375,0.5360387215465306,-0.4284972152382135,0.7720859770629555
1782853707763209500,5.90720947265625,0.216295895537734,-0.40196028677262363,0.7874254388835281
1782853707773194500,5.917194580078125,-0.005108136793971062,-0.372240198226273,0.8094786460638046
1782853707783178500,5.927178466796875,-0.09569149403870106,-0.3628786417715251,0.816561297801137
1782853707793163500,5.93716357421875,-0.28229952279925347,-0.32994865126796064,0.8261778519302606
1782853707803148500,5.9471484375,-0.6015402445048094,-0.25232626320943236,0.8318900920972228
1782853707813132500,5.957132568359375,-1.019764487531781,-0.1075585305083543,0.7256744275651872
1782853707823117600,5.96711767578125,-1.4359265373319388,-0.04616816919595003,0.5596330937542021
1782853707833101600,5.9771015625,-1.733925733566284,-0.010899871937930584,0.40141993281822647
1782853707843086600,5.987086669921875,-1.9861317313969133,0.11051533448733389,0.25432348317494613
1782853707853071400,5.9970712890625,-2.163496130993962,0.3620281624220311,0.09627073696507141
1782853707863055400,6.007055419921875,-2.3017349733829495,0.6767046449519694,-0.01738598255421966
1782853707873040600,6.01704052734375,-2.499221539032459,0.9063106884397566,-0.20185069740945472
1782853707883025700,6.027025634765625,-2.626484229376912,0.9711046476505696,-0.37460181279107924
1782853707893009700,6.037009765625,-2.781941917592287,0.8163642408590763,-0.47409912885352967
1782853707902994700,6.04699462890625,-2.788976638534665,0.5607557411085814,-0.5064266234192997
1782853707912979700,6.056979736328125,-2.687126621866226,0.40417796282209456,-0.4661244236472994
1782853707922963700,6.066963623046875,-2.753283978384733,0.3919831557027995,-0.41314927785024047
1782853707932948500,6.076948486328125,-2.8531168100118633,0.424270610519126,-0.4777277676794678
1782853707942932500,6.086932373046875,-2.800355526161194,0.36836408744528887,-0.6501951890151947
1782853707952917500,6.09691748046875,-2.7270857072889805,0.31740006227493284,-0.8237463139344007
1782853707962902500,6.106902587890625,-2.7785838393360374,0.3284193228088319,-0.8269025129429995
1782853707972886500,6.116886474609375,-2.7630869949966668,0.2678385973788798,-0.6331535263866186
1782853707982871600,6.12687158203125,-2.448220835113525,0.1488414849460125,-0.4486841901551932
1782853707992856600,6.136856689453125,-2.001028271755576,0.20003807676322757,-0.3748903108762577
1782853708002840600,6.146840576171875,-1.564409709382057,0.40695583003759384,-0.3646701282981783
1782853708012825600,6.15682568359375,-1.1792816802710293,0.6047929626904428,-0.4295935591075569
1782853708022810400,6.166810302734375,-0.7860323040246963,0.7805862405132502,-0.6116835624543949
1782853708032794400,6.17679443359375,-0.5262298597157001,0.8805291814513504,-0.8044211434785277
1782853708042779400,6.186779296875,-0.46503918569386005,0.8367292026914656,-0.8867892647594213
1782853708052763400,6.196763427734375,-0.48241877503991126,0.6768793439317494,-0.8560673056941479
1782853708062748700,6.206748779296875,-0.516446132326126,0.4533618996426463,-0.7504728418003768
1782853708072733700,6.216733642578125,-0.4642319609642028,0.2778571564376354,-0.6807206025950611
1782853708082717700,6.2267177734375,-0.26976386635303495,0.13244338091798125,-0.620824060036987
1782853708092702700,6.23670263671875,0.10777414602041244,0.0868778537902981,-0.5103709405982867
1782853708102687500,6.2466875,0.4631657930374145,0.14662015563473105,-0.3212767575778067
1782853708112671500,6.25667138671875,0.848807032367587,0.13300101480074225,-0.16715298484731464
1782853708122656500,6.266656494140625,1.2772428728073835,0.04038059877045452,-0.08585192654235288
1782853708132641500,6.2766416015625,1.6258517278164624,-0.021360183414816856,-0.051972804920678024
1782853708142625500,6.28662548828125,1.7938836509227751,-0.021263591172546146,-0.05996597279878333
1782853708152610600,6.296610595703125,1.9059002568185328,-0.07815949060991406,-0.13732455882197245
1782853708162594600,6.306594482421875,2.0129986955344674,-0.2522760673921555,-0.2393419131476432
1782853708172579600,6.31657958984375,2.075491684326529,-0.4474517988160252,-0.2255390863098204
1782853708182564600,6.326564697265625,2.053100404298305,-0.622063392573595,-0.06300490210326389
1782853708192548600,6.336548583984375,2.104760448908806,-0.7133570900447667,0.07396497979583218
1782853708202533400,6.346533447265625,2.2554612979859114,-0.6950088748622685,0.16476004356248303
1782853708212518400,6.356518310546875,2.309877363306284,-0.6134457863539456,0.17514283282374962
1782853708222502400,6.36650244140625,2.294787346202135,-0.5105838892292232,0.07453200256144628
1782853708232487700,6.37648779296875,2.300942361700535,-0.4254794748522341,-0.08090082520730793
1782853708242471400,6.386471435546875,2.2307255006581546,-0.3922942674785852,-0.13664510692413895
1782853708252456700,6.396456787109375,2.05036834898591,-0.4386409350465983,-0.11755445761019363
1782853708262441700,6.406441650390625,1.938515409219265,-0.5105698607038707,-0.08939951775502412
1782853708272425700,6.41642578125,1.9049661908388136,-0.5727884895339608,-0.022112974543496967
1782853708282410500,6.426410400390625,1.7635118935346603,-0.6297014131713659,0.003677775197289884
1782853708292395500,6.4363955078125,1.6544348482221365,-0.6336044850245118,-0.025182719111349432
1782853708302379500,6.446379638671875,1.5730156251639127,-0.6261330531653017,-0.06177395380251109
1782853708312364500,6.456364501953125,1.481297710931301,-0.5700873408164828,-0.08788438221802934
1782853708322349600,6.466349609375,1.3145628418982027,-0.5381558598309755,-0.12716525785196572
1782853708332333600,6.47633349609375,1.2033657356917857,-0.4924004361543804,-0.17884581552753223
1782853708342318600,6.486318603515625,1.2086422147899865,-0.4626982485909015,-0.1751737028860487
1782853708352302600,6.496302490234375,1.143244736728072,-0.49821869397908447,-0.09354755907887592
1782853708362286300,6.506286376953125,1.0487211174249649,-0.5118078050009905,0.0026106939550489187
1782853708372271600,6.516271728515625,0.8871732956409454,-0.4985382082570344,0.10799567981660366
1782853708382255600,6.526255615234375,0.8271744617521762,-0.5351230680063367,0.1455828850088641
1782853708392240600,6.53624072265625,0.9379448669791222,-0.5290775042317807,0.19671664072293787
1782853708402225400,6.546225341796875,1.1162269659429789,-0.5115171514913439,0.3337861836042255
1782853708412209400,6.55620947265625,1.1722452057629822,-0.42633696846440433,0.46158893564213066
1782853708422194400,6.5661943359375,1.0078601147264241,-0.2827743007041514,0.4587722342535853
1782853708432178400,6.576178466796875,0.5932037933140992,-0.2525857909284532,0.47599845966883003
1782853708442163500,6.58616357421875,-0.0505985528588295,-0.36804581527635455,0.560149811104685
1782853708452148500,6.5961484375,-0.6641378627151251,-0.5152481547132134,0.43424321154430506
1782853708462132500,6.606132568359375,-1.1576397573053836,-0.5949968142107128,0.2212879316713661
1782853708472117500,6.616117431640625,-1.4581763630628586,-0.4467036107972264,0.05074599850550294
1782853708482102300,6.626102294921875,-1.568828110346198,-0.1751356176316738,-0.005791698611341416
1782853708492086500,6.63608642578125,-1.7681752091705798,0.07742810759544372,-0.037270394328050314
1782853708502071300,6.6460712890625,-2.2160481560081244,0.33975977812111374,-0.07903795394487678
1782853708512056300,6.656056396484375,-2.8946003285229205,0.5174732834167778,-0.10912588942293078
1782853708522040300,6.666040283203125,-3.8285371289044616,0.38241657819524405,-0.12014650166369974
1782853708532025300,6.676025390625,-4.455881676751375,0.11907558449655771,-0.19482300899606197
1782853708542009300,6.68600927734375,-4.697510750988125,0.1294543551698327,-0.2520210331851616
1782853708551994400,6.695994384765625,-4.8038440505504605,0.37365605637356636,-0.1280871950024739
1782853708561979600,6.705979736328125,-4.6171688017725945,0.5974726297397166,-0.061872062148433174
1782853708571963600,6.715963623046875,-4.00345881152451,0.685169544827938,-0.13231575421663
1782853708581948400,6.725948486328125,-2.9855992808312175,0.6878587839119136,-0.21271794571941718
1782853708591933400,6.735933349609375,-1.9276169985860585,0.8245560959473252,-0.20454057581424712
1782853708601917400,6.74591748046875,-1.093408400413394,1.0630871311035006,-0.17542678259797392
1782853708611902500,6.75590234375,-0.7165490179538726,1.1777019367989152,-0.03577916938960552
1782853708621886500,6.765886474609375,-0.8266291028290986,0.9630103346526622,0.04431132581550628
1782853708631871500,6.77587158203125,-1.1120336059063671,0.4717274312861264,0.14454890231862663
1782853708641856500,6.7858564453125,-1.208607727998495,0.06151427995301783,0.24560985096860677
1782853708651840500,6.795840576171875,-1.104264140948653,-0.029036417131125924,0.26046510946881024
1782853708661825500,6.805825439453125,-0.7969172706544398,0.14073570070601998,0.1440085118316114
1782853708671810300,6.815810302734375,-0.4225122956097126,0.3537964867800474,0.054738885800261046
1782853708681794300,6.825794189453125,-0.06343816068768501,0.4906772656235844,0.0760394068831345
1782853708691779300,6.835779296875,0.14210662373304367,0.5768325042277574,-0.05207158912003506
1782853708701764400,6.845764404296875,0.18337620723247527,0.5765328636940569,-0.14708342576492578
1782853708711748400,6.855748291015625,0.16607494381964205,0.43491687302216886,-0.12660589780299925
1782853708721733400,6.8657333984375,0.22634558038711547,0.22752463410384952,-0.04599487672196701
1782853708731717400,6.87571728515625,0.29617607246041294,0.014417378539592027,0.12699035794278607
1782853708741702700,6.88570263671875,0.3653858022868633,-0.1826998423408717,0.22782522448562084
1782853708751687400,6.8956875,0.6325695890188217,-0.23430706078559158,0.29312231091298163
1782853708761671400,6.90567138671875,1.0511726022303103,-0.1836653994373977,0.34715807167887686
1782853708771656400,6.915656494140625,1.4759259547650814,-0.10744820200167596,0.3344858928387984
1782853708781641500,6.925641357421875,1.903684334334731,-0.06905848478749393,0.3074077336359769
1782853708791625500,6.93562548828125,2.2062843023627994,-0.07450652106031776,0.3242256705112755
1782853708801610500,6.945610595703125,2.5007722756057977,-0.14178367538899184,0.31436913361381735
1782853708811594500,6.955594482421875,2.7253192821383476,-0.21229900792129336,0.3086082319995388
1782853708821579500,6.96557958984375,2.7503888414651154,-0.2717953721806407,0.32396128395404666
1782853708831564500,6.975564453125,2.53402104973495,-0.38246407059878107,0.3223914042888209
1782853708841548500,6.985548583984375,2.2586668160289523,-0.4570432915691286,0.2787163122839294
1782853708851533300,6.995533203125,2.0508248605817556,-0.4567876363076269,0.19246691085658965
1782853708861518300,7.005518310546875,1.9559265627473592,-0.45998102552145714,0.16613171550817787
1782853708871502300,7.01550244140625,2.0448679980039595,-0.3703114951860159,0.19400816721552983
1782853708881487400,7.0254873046875,2.137849064040184,-0.262038459732756,0.307072985256277
1782853708891471400,7.035471435546875,2.096992152994871,-0.19544855701588093,0.4150041119366884
1782853708901456400,7.045456298828125,1.9232552962452172,-0.14884579579494892,0.48079522895868865
1782853708911441400,7.05544140625,1.6527338895231485,-0.15618293375000356,0.5379791880898177
1782853708921425400,7.06542529296875,1.384235513061285,-0.27923041755221784,0.5666123947149142
1782853708931410400,7.075410400390625,1.0545260043114424,-0.45399574056677516,0.6362681512758135
1782853708941395500,7.0853955078125,0.7371803025722503,-0.5827040266096591,0.738036919401586
1782853708951379500,7.09537939453125,0.4827461072981357,-0.6449386567264795,0.8488605161204934
1782853708961364500,7.105364501953125,0.35534546978771686,-0.5494543756976723,0.880589021879807
1782853708971348500,7.115348388671875,0.19364567231237886,-0.42552221801541745,0.9017439650461078
1782853708981333500,7.12533349609375,-0.16136194382309912,-0.3678519732046872,0.8909251224551349
1782853708991318500,7.135318603515625,-0.37060032206475735,-0.4286393271226436,0.7924738813795149
1782853709001302500,7.145302490234375,-0.6933090121418237,-0.4034014254916459,0.7565682360660284
1782853709011287600,7.15528759765625,-1.003759109148383,-0.2601213740650564,0.7555133201856166
1782853709021272300,7.165272216796875,-1.3673679648905992,-0.16992336287610232,0.9125703333564102
1782853709031256300,7.17525634765625,-1.818539368751645,-0.15408895714543758,1.1122986865833402
1782853709041241300,7.185241455078125,-2.36410053640306,-0.08239544767923652,1.1599981569997966
1782853709051225300,7.195225341796875,-2.953606644243002,0.10879201782606542,0.9610558395840227
1782853709061210400,7.20521044921875,-3.2261183479994533,0.2512158908147365,0.6127915236962959
1782853709071195400,7.2151953125,-3.3619670803815125,0.3643528790425509,0.2726899464001879
1782853709081179400,7.225179443359375,-3.4358319425374266,0.4479593830119818,0.001144457327388227
1782853709091164400,7.235164306640625,-3.2113112394899126,0.4774829991381615,-0.2383077477943152
1782853709101149400,7.2451494140625,-2.9610125365853306,0.5538237498883157,-0.4171425852701068
1782853709111133400,7.255133544921875,-2.8382477421820163,0.6974642321251332,-0.4945134462529793
1782853709121118500,7.265118408203125,-2.8001638029813765,0.7051379816234111,-0.48565308078601954
1782853709131103500,7.275103515625,-2.8616151737660167,0.5235575717665255,-0.42555933515541255
1782853709141087500,7.28508740234375,-3.028234307464957,0.26768063033819195,-0.36221133696921165
1782853709151072500,7.295072509765625,-3.179073688229918,0.11998678105734288,-0.30869492390230296
1782853709161056500,7.305056396484375,-3.0880010861635205,0.12410141330193727,-0.25385606659259646
1782853709171041500,7.31504150390625,-2.8401790025055407,0.1649889386812225,-0.17832180991973726
1782853709181026600,7.325026611328125,-2.6087287924557923,0.2051574656035751,-0.17437303576134144
1782853709191010600,7.335010498046875,-2.2622961124420167,0.2631751356124878,-0.329252851023525
1782853709200995300,7.344995361328125,-1.579877912148833,0.3985992859069258,-0.5125261824034154
1782853709210980400,7.35498046875,-0.9777502231448888,0.6509020951755344,-0.6364139894872903
1782853709220964400,7.36496435546875,-0.667912705078721,0.7949918555498122,-0.6053767539277672
1782853709230949400,7.374949462890625,-0.3980845413178205,0.6838992326311767,-0.580507393348217
1782853709240933400,7.384933349609375,0.07057634200453758,0.5139686362966894,-0.5864409115830436
1782853709250918400,7.39491845703125,0.3932622357279062,0.4619841820374131,-0.5576657757366076
1782853709260903400,7.4049033203125,0.6092728845834732,0.4559400065023452,-0.5603973561249673
1782853709270887400,7.414887451171875,0.9314514133065939,0.362473458504118,-0.5613690872339532
1782853709280872400,7.42487255859375,1.2666735479980706,0.2386149505799636,-0.5261177776433528
1782853709290856400,7.4348564453125,1.5353595559865236,0.12507665154226125,-0.4471550808917731
1782853709300841200,7.44484130859375,1.7338854015558958,0.014408683776482939,-0.36481852379292246
1782853709310826500,7.454826416015625,1.9821552289813755,-0.04442461346425116,-0.26799607122922314
1782853709320810500,7.464810546875,2.221263260307908,-0.07488638722337781,-0.20008195243757218
1782853709330795500,7.47479541015625,2.271706330344081,-0.091259868266806,-0.13650937911472283
1782853709340780500,7.484780517578125,2.265368359494209,-0.1750612372212112,-0.16136289367116988
1782853709350764500,7.4947646484375,2.3510236126869914,-0.2845573847286403,-0.19059571015723048
1782853709360753000,7.5047529296875,2.4139058930575845,-0.3355622533660382,-0.17209827749608084
1782853709370737700,7.514737548828125,2.478076459673047,-0.4181654985770583,-0.16237203418109564
1782853709380722000,7.524721923828125,2.5217010818660257,-0.54473326545991,-0.1351143902255222
1782853709390706700,7.534706787109375,2.5101146889686583,-0.6542063243526965,-0.14383084457661025
1782853709400690700,7.544690673828125,2.409285832041502,-0.6974301837250589,-0.14552530960272997
1782853709410675700,7.55467578125,2.453361120611429,-0.6966100264485925,-0.17562654295377433
1782853709420660700,7.56466064453125,2.589795543926954,-0.7093840216953307,-0.14533258177591488
1782853709430644700,7.574644775390625,2.5451702202588318,-0.6994133203662931,-0.09591028788853437
1782853709440629800,7.584629638671875,2.370658872005343,-0.6960899480972439,-0.05295943677127361
1782853709450615000,7.594614990234375,2.1496254265516996,-0.7032424502003938,-0.03592833206932992
1782853709460598800,7.604598876953125,1.9734458528250454,-0.7172641804859041,-0.12320415393495932
1782853709470583800,7.614583740234375,1.9439222366988658,-0.6962032722786069,-0.17371438918951898
1782853709480567800,7.62456787109375,1.8703870448887348,-0.6772905550811439,-0.1272058364575263
1782853709490552800,7.634552734375,1.7203531352877617,-0.691608126508072,-0.09558107420047744
1782853709500537900,7.644537841796875,1.520867504775524,-0.7682102316081524,-0.06209419873282313
1782853709510521900,7.65452197265625,1.2876210589587687,-0.861395880305767,-0.05190089046193752
1782853709520507000,7.6645068359375,1.052736198285222,-0.91004373748824,-0.10760850712992251
1782853709530492000,7.674491943359375,0.9360176983088254,-0.90428305506967,-0.10888608931768685
1782853709540476000,7.684475830078125,0.7737585133850574,-0.8851545762296765,-0.05951090424135327
1782853709550461000,7.6944609375,0.5721960765987635,-0.8837986315760761,-0.02807119567802874
1782853709560445000,7.70444482421875,0.25117899287045,-0.910024375200644,0.03374564970142673
1782853709570429700,7.7144296875,-0.0786748927861452,-0.9175046479534357,0.01823046370447846
1782853709580414700,7.724414794921875,-0.36442426377832887,-0.8955538782343268,0.04912660344301257
1782853709590398700,7.734398681640625,-0.585311578759551,-0.9213538707274943,0.18773440244197845
1782853709600383700,7.7443837890625,-0.6725859575867652,-0.8759055402386933,0.289929816748295
1782853709610368800,7.75436865234375,-0.778744485104084,-0.7226711540959775,0.28600668848780914
1782853709620352800,7.764352783203125,-1.0348270321071147,-0.5919744707148522,0.2610661806344986
1782853709630337800,7.774337890625,-1.4831237573146818,-0.566228327300772,0.24827203764887526
1782853709640321800,7.78432177734375,-2.031664817559719,-0.4764757948569953,0.2730970293637365
1782853709650306800,7.794306884765625,-2.7290648984074592,-0.28650669216550884,0.2514164183555171
1782853709660291800,7.804291748046875,-3.0364117687016723,-0.10529350818581878,0.21197419641371815
1782853709670275800,7.81427587890625,-3.065946490743756,-0.007786708353459835,0.2939634744448587
1782853709680260900,7.8242607421875,-3.1727766339123247,-0.018087372289225457,0.20010328748654574
1782853709690246000,7.834245849609375,-3.298193988651037,-0.051063466956838964,-0.06936545924427918
1782853709700230000,7.84422998046875,-3.450214103633165,-0.039930005458742375,-0.21999268596274776
1782853709710215000,7.85421484375,-3.4130472792774436,-0.0509483161445707,-0.2041026045220904
1782853709720199000,7.864198974609375,-3.1075217791914937,-0.056346010469645255,-0.10958498570150695
1782853709730184000,7.874183837890625,-2.936099044603109,-0.027121011963859198,-0.14399227308286353
1782853709740168700,7.884168701171875,-2.594171274793148,0.05039798878543079,-0.2581082989432849
1782853709750152700,7.894152587890625,-2.206846612420678,0.02124868586435914,-0.14050687865251674
1782853709760137700,7.9041376953125,-1.731575955569744,-0.08457125734835863,0.07809389629410579
1782853709770122800,7.914122802734375,-0.3075555446088314,-0.028196459175646303,0.47714646066017447
1782853709780106800,7.924106689453125,-1.4229711941689251,-0.15232866947464643,0.8226555230230093
1782853709790091800,7.934091796875,-1.8732067784845827,-0.35996940326131877,0.8655154444538057
1782853709800075800,7.94407568359375,-1.7103811918497085,-0.4176452740952372,0.7204717443555593
1782853709810060800,7.954060791015625,-1.3416104232996702,-0.123114630754292,0.6319858708467334
1782853709820045800,7.9640458984375,-1.0383481919705868,0.3468791086070239,0.48623365715295075
1782853709830029800,7.97402978515625,-0.6962392203748226,0.6747250885073095,0.44242443564068523
1782853709840014600,7.9840146484375,-0.10543898107111453,0.6680094434514642,0.362125850642845
