time,seconds_elapsed,z,y,x
1782853713974616000,0.079615966796875,-0.08788777887821198,0.5484368205070496,0.09815888851881027
1782853713984601300,0.089601318359375,-0.06320392340421677,0.5960424542427063,0.028578538447618484
1782853713994585000,0.099585205078125,-0.059533290565013885,0.596061646938324,-0.04068388789892197
1782853714004570400,0.1095703125,-0.08665408939123154,0.5328553318977356,-0.11284384876489639
1782853714014555100,0.11955517578125,-0.11799949407577515,0.462965726852417,-0.18837669491767883
1782853714024539100,0.1295390625,-0.1443285495042801,0.4000404179096222,-0.2554340958595276
1782853714034524200,0.139524169921875,-0.17342330515384674,0.3210257589817047,-0.30086204409599304
1782853714044508200,0.149508056640625,-0.20888599753379822,0.1820988953113556,-0.31224456429481506
1782853714054493200,0.1594931640625,-0.24859905242919922,-0.002522340975701809,-0.2749941349029541
1782853714064478200,0.169478271484375,-0.27598923444747925,-0.13710620999336243,-0.1957125961780548
1782853714074462200,0.179462158203125,-0.27948328852653503,-0.1867256909608841,-0.07943712174892426
1782853714084447200,0.189447265625,-0.2705720067024231,-0.13803961873054504,0.0542055107653141
1782853714094432000,0.199431884765625,-0.2571249008178711,-0.05474446713924408,0.1686018705368042
1782853714104416300,0.209416259765625,-0.2545243799686432,0.012006590142846107,0.2425052970647812
1782853714114401000,0.219401123046875,-0.2701534032821655,0.07625827938318253,0.2756163775920868
1782853714124385000,0.229385009765625,-0.2731582224369049,0.145155131816864,0.28079888224601746
1782853714134370000,0.2393701171875,-0.27168548107147217,0.18868263065814972,0.25531455874443054
1782853714144355000,0.24935498046875,-0.26268094778060913,0.2104291021823883,0.20594334602355957
1782853714154339000,0.259339111328125,-0.2720710039138794,0.23718108236789703,0.16127094626426697
1782853714164324000,0.269323974609375,-0.29338911175727844,0.27514708042144775,0.1269240826368332
1782853714174308000,0.27930810546875,-0.3108258843421936,0.3816823363304138,0.11207802593708038
1782853714184293000,0.289293212890625,-0.3159361779689789,0.5470221638679504,0.10896069556474686
1782853714194278100,0.299278076171875,-0.30183103680610657,0.6581071019172668,0.09742521494626999
1782853714204262100,0.30926220703125,-0.2769927382469177,0.6852173805236816,0.08268823474645615
1782853714214247200,0.3192470703125,-0.2517850995063782,0.643798828125,0.0816970095038414
1782853714224231200,0.329231201171875,-0.22252686321735382,0.5314813852310181,0.10724338889122009
1782853714234216200,0.33921630859375,-0.18662239611148834,0.3600119352340698,0.14213986694812775
1782853714244201200,0.349201171875,-0.15170642733573914,0.18951265513896942,0.1872054934501648
1782853714254185200,0.359185302734375,-0.1099347472190857,0.018456488847732544,0.2271164208650589
1782853714264170200,0.369170166015625,-0.06802250444889069,-0.12743806838989258,0.24031329154968262
1782853714274155300,0.3791552734375,-0.009711261838674545,-0.21751470863819122,0.22494205832481384
1782853714284139300,0.38913916015625,0.038809262216091156,-0.2781742513179779,0.1743871420621872
1782853714294124000,0.3991240234375,0.05694218724966049,-0.3342913091182709,0.09330879896879196
1782853714304108000,0.40910791015625,0.028878040611743927,-0.4080050587654114,-0.0169419776648283
1782853714314093000,0.419093017578125,-0.03247213363647461,-0.4705238342285156,-0.1658260077238083
1782853714324078000,0.429078125,-0.10592816025018692,-0.49198251962661743,-0.34061548113822937
1782853714334062000,0.43906201171875,-0.16376562416553497,-0.46914803981781006,-0.49683836102485657
1782853714344047000,0.449047119140625,-0.19340066611766815,-0.40456560254096985,-0.589091956615448
1782853714354031000,0.459031005859375,-0.19882258772850037,-0.27690646052360535,-0.6035518646240234
1782853714364016000,0.46901611328125,-0.17047448456287384,-0.0932563841342926,-0.5470277667045593
1782853714374001200,0.479001220703125,-0.09902960062026978,0.10587641596794128,-0.44103848934173584
1782853714383985200,0.488985107421875,0.005993431434035301,0.2874175012111664,-0.3181215226650238
1782853714393970200,0.49897021484375,0.10145869851112366,0.3907947540283203,-0.2179429680109024
1782853714403954200,0.5089541015625,0.17460626363754272,0.4075256288051605,-0.16818752884864807
1782853714413939200,0.518939208984375,0.2389029711484909,0.36643439531326294,-0.1619376242160797
1782853714423924200,0.52892431640625,0.30849605798721313,0.25536009669303894,-0.18665118515491486
1782853714433908200,0.538908203125,0.36566027998924255,0.09408892691135406,-0.23662807047367096
1782853714443893200,0.548893310546875,0.40156611800193787,-0.09589265286922455,-0.284119188785553
1782853714453878300,0.558878173828125,0.42192307114601135,-0.2496212273836136,-0.31508296728134155
1782853714463862300,0.5688623046875,0.43841251730918884,-0.3286898136138916,-0.32045817375183105
1782853714473847000,0.578846923828125,0.4596017003059387,-0.35461756587028503,-0.2895580530166626
1782853714483831000,0.5888310546875,0.46450135111808777,-0.3375265300273895,-0.21401134133338928
1782853714493816000,0.598816162109375,0.45072534680366516,-0.2557845413684845,-0.11765817552804947
1782853714503801000,0.608801025390625,0.4177979826927185,-0.12870220839977264,-0.031166769564151764
1782853714513785000,0.61878515625,0.37405848503112793,0.0005061086267232895,0.02343761920928955
1782853714523770000,0.62877001953125,0.33381393551826477,0.10632888972759247,0.01941213570535183
1782853714533754000,0.638754150390625,0.2918049693107605,0.2121828943490982,-0.02126685157418251
1782853714543739100,0.6487392578125,0.2580120861530304,0.3064348101615906,-0.08480427414178848
1782853714553724200,0.65872412109375,0.2392386794090271,0.350679486989975,-0.15930327773094177
1782853714563708200,0.668708251953125,0.2319602519273758,0.3478379547595978,-0.22704832255840302
1782853714573693000,0.67869287109375,0.24306297302246094,0.3100208044052124,-0.2775264084339142
1782853714583678200,0.68867822265625,0.25813254714012146,0.24263669550418854,-0.2978077232837677
1782853714593662200,0.698662109375,0.27239325642585754,0.16671237349510193,-0.28255102038383484
1782853714603647200,0.708647216796875,0.280159592628479,0.09978592395782471,-0.22585429251194
1782853714613631200,0.71863134765625,0.2967422902584076,0.06300580501556396,-0.1362636834383011
1782853714623616300,0.7286162109375,0.3315756022930145,0.04302309453487396,-0.020558815449476242
1782853714633601300,0.738601318359375,0.36696553230285645,0.0386216901242733,0.10352344810962677
1782853714643585300,0.748585205078125,0.3849211633205414,0.03610501065850258,0.2208717316389084
1782853714653570000,0.758570068359375,0.3968723714351654,0.024649690836668015,0.3181319534778595
1782853714663554300,0.76855419921875,0.40823954343795776,-0.005451221019029617,0.4000302851200104
1782853714673539000,0.7785390625,0.41055116057395935,-0.038061097264289856,0.45210519433021545
1782853714683524000,0.788524169921875,0.4110470414161682,-0.057695843279361725,0.47740259766578674
1782853714693508000,0.798508056640625,0.3933681845664978,-0.07378479838371277,0.4721202254295349
1782853714703493000,0.8084931640625,0.3530905246734619,-0.10650233179330826,0.42867088317871094
1782853714713477000,0.81847705078125,0.28532081842422485,-0.1623845100402832,0.36268335580825806
1782853714723462100,0.828462158203125,0.21329566836357117,-0.18700893223285675,0.2850816547870636
1782853714733447200,0.838447265625,0.15010258555412292,-0.16198879480361938,0.20708806812763214
1782853714743431200,0.84843115234375,0.10777167975902557,-0.09735281020402908,0.13704274594783783
1782853714753416000,0.858416015625,0.07843510061502457,-0.035328589379787445,0.06746020913124084
1782853714763401000,0.86840087890625,0.04772408306598663,0.006445484235882759,0.005306811537593603
1782853714773385000,0.878385009765625,0.028489666059613228,0.017850205302238464,-0.026978958398103714
1782853714783370200,0.888370361328125,0.027049841359257698,0.00680085364729166,-0.034373536705970764
1782853714793354000,0.89835400390625,0.02646580897271633,0.014520292170345783,-0.020171966403722763
1782853714803339300,0.90833935546875,0.012152325361967087,0.05948702245950699,-0.023937035351991653
1782853714813324300,0.91832421875,0.005722655914723873,0.1164882630109787,-0.06710873544216156
1782853714823308300,0.928308349609375,0.005920320749282837,0.16969841718673706,-0.14543454349040985
1782853714833293300,0.938293212890625,-0.00922960415482521,0.20292401313781738,-0.2570100724697113
1782853714843277300,0.94827734375,-0.05047614127397537,0.16935905814170837,-0.3814563751220703
1782853714853262000,0.958261962890625,-0.1184951439499855,0.08300819993019104,-0.48949310183525085
1782853714863247000,0.9682470703125,-0.1929851919412613,-0.03397509828209877,-0.5614269375801086
1782853714873231000,0.978231201171875,-0.26368892192840576,-0.16518132388591766,-0.5947002172470093
1782853714883216100,0.988216064453125,-0.3179933428764343,-0.29061299562454224,-0.5824135541915894
1782853714893200100,0.9982001953125,-0.35259073972702026,-0.3460432291030884,-0.5284425020217896
1782853714903185200,1.00818505859375,-0.35879501700401306,-0.41570809483528137,-0.4630850553512573
1782853714913170200,1.018170166015625,-0.3393195867538452,-0.46541041135787964,-0.3961438238620758
1782853714923154200,1.028154296875,-0.2853187024593353,-0.4554083049297333,-0.29585814476013184
1782853714933139200,1.03813916015625,-0.22323031723499298,-0.38394585251808167,-0.16888874769210815
1782853714943124000,1.0481240234375,-0.17729760706424713,-0.2649705708026886,-0.03686540201306343
1782853714953108000,1.05810791015625,-0.13224144279956818,-0.11763384193181992,0.061607375741004944
1782853714963093000,1.068093017578125,-0.08110484480857849,0.046233683824539185,0.11192090809345245
1782853714973077000,1.078076904296875,-0.028716474771499634,0.17352105677127838,0.10479748249053955
1782853714983062300,1.088062255859375,0.012339556589722633,0.23943595588207245,0.06912241876125336
1782853714993047300,1.09804736328125,0.02525881864130497,0.24933971464633942,0.030584348365664482
1782853715003031300,1.10803125,0.013383647426962852,0.22934693098068237,-0.002945247106254101
1782853715013016300,1.118016357421875,-0.01652737893164158,0.19018462300300598,-0.013567797839641571
1782853715023000300,1.128000244140625,-0.058203063905239105,0.12979955971240997,-0.0076291621662676334
1782853715032985000,1.137985107421875,-0.11553586274385452,0.049781434237957,0.032209329307079315
1782853715042970000,1.14797021484375,-0.18245892226696014,0.023540906608104706,0.096019446849823
1782853715052954000,1.1579541015625,-0.24271319806575775,0.03415786474943161,0.1650587022304535
1782853715062939100,1.167939208984375,-0.2903214693069458,0.0376158207654953,0.225496307015419
1782853715072923100,1.177923095703125,-0.32811492681503296,0.059254806488752365,0.25687047839164734
1782853715082908200,1.187908203125,-0.3464467525482178,0.09564943611621857,0.2511823773384094
1782853715092893200,1.19789306640625,-0.35042470693588257,0.13903285562992096,0.21603426337242126
1782853715102877200,1.207877197265625,-0.335189551115036,0.178811714053154,0.15185827016830444
1782853715112862200,1.2178623046875,-0.3169913589954376,0.1912878155708313,0.06514042615890503
1782853715122847000,1.227846923828125,-0.2942730486392975,0.16638925671577454,-0.03421436622738838
1782853715132831000,1.2378310546875,-0.2736692428588867,0.11064662039279938,-0.12974487245082855
1782853715142816000,1.24781591796875,-0.2702568769454956,0.025867119431495667,-0.2047857791185379
1782853715152800000,1.257800048828125,-0.2805577218532562,-0.06406969577074051,-0.2508541941642761
1782853715162785000,1.267784912109375,-0.3040319085121155,-0.12945964932441711,-0.2357376515865326
1782853715172770300,1.277770263671875,-0.3302094638347626,-0.15138943493366241,-0.16989977657794952
1782853715182754000,1.287754150390625,-0.35089462995529175,-0.10512702912092209,-0.06618381291627884
1782853715192739300,1.2977392578125,-0.35221049189567566,-0.028492972254753113,0.04348995164036751
1782853715202723300,1.307723388671875,-0.33707356452941895,0.060980066657066345,0.14304926991462708
1782853715212708400,1.317708251953125,-0.30910077691078186,0.16920746862888336,0.22465093433856964
1782853715222693000,1.327693115234375,-0.26679885387420654,0.23468509316444397,0.27103325724601746
1782853715232677000,1.337677001953125,-0.22238239645957947,0.23166774213314056,0.2786182165145874
1782853715242662100,1.347662109375,-0.18055422604084015,0.2169005572795868,0.27649566531181335
1782853715252646100,1.357646240234375,-0.15242910385131836,0.19940944015979767,0.2828936278820038
1782853715262631200,1.367631103515625,-0.15515971183776855,0.18168696761131287,0.29240041971206665
1782853715272616200,1.3776162109375,-0.16882331669330597,0.2087516039609909,0.30391165614128113
1782853715282600200,1.38760009765625,-0.20561400055885315,0.22108101844787598,0.29092198610305786
1782853715292585200,1.397585205078125,-0.27265483140945435,0.18976543843746185,0.2464485466480255
1782853715302570000,1.407570068359375,-0.36338406801223755,0.1373220831155777,0.20510193705558777
1782853715312554200,1.41755419921875,-0.44862493872642517,0.13100452721118927,0.21175558865070343
1782853715322539000,1.4275390625,-0.4983963668346405,0.2064237743616104,0.2729751467704773
1782853715332523000,1.43752294921875,-0.49667730927467346,0.3007023334503174,0.36086294054985046
1782853715342508000,1.447508056640625,-0.4672767221927643,0.3759959936141968,0.4342569410800934
1782853715352493000,1.4574931640625,-0.4334002435207367,0.43898800015449524,0.4709782004356384
1782853715362477000,1.46747705078125,-0.42384281754493713,0.48939406871795654,0.4604934751987457
1782853715372466200,1.477466064453125,-0.4155004620552063,0.45021069049835205,0.36126887798309326
1782853715382450200,1.4874501953125,-0.38160452246665955,0.311939001083374,0.1871960610151291
1782853715392435200,1.497435302734375,-0.31112635135650635,0.10785911232233047,-0.007568634580820799
1782853715402420000,1.507419921875,-0.20224690437316895,-0.07491975277662277,-0.16698159277439117
1782853715412404000,1.517404052734375,-0.08390455693006516,-0.17678938806056976,-0.2618361711502075
1782853715422389000,1.527388916015625,0.002101266523823142,-0.2298905998468399,-0.29618149995803833
1782853715432373000,1.537373046875,0.0538126640021801,-0.2876092791557312,-0.3038591146469116
1782853715442358000,1.54735791015625,0.08044489473104477,-0.33549320697784424,-0.2817578613758087
1782853715452343000,1.557343017578125,0.09175321459770203,-0.3446211814880371,-0.23877577483654022
1782853715462327000,1.5673271484375,0.08537682145833969,-0.32495594024658203,-0.18073581159114838
1782853715472312000,1.57731201171875,0.07680170983076096,-0.2813722491264343,-0.12205811589956284
1782853715482296000,1.587296142578125,0.08531676232814789,-0.1864776760339737,-0.05365673825144768
1782853715492281000,1.597281005859375,0.1112772524356842,-0.06587404012680054,0.003613473381847143
1782853715502265900,1.607265869140625,0.13748519122600555,0.01573118381202221,0.0256282240152359
1782853715512249900,1.617249755859375,0.16706225275993347,0.030438225716352463,-0.013566848821938038
1782853715522235000,1.62723486328125,0.21592865884304047,0.0028128987178206444,-0.08757221698760986
1782853715532219000,1.637218994140625,0.27265796065330505,-0.018041517585515976,-0.15995293855667114
1782853715542204200,1.6472041015625,0.3255477249622345,-0.03376210853457451,-0.2116919904947281
1782853715552189200,1.657189208984375,0.37306785583496094,-0.05331423878669739,-0.22828562557697296
1782853715562173200,1.667173095703125,0.4180114269256592,-0.08233548700809479,-0.20441344380378723
1782853715572158200,1.677158203125,0.4670620858669281,-0.13152140378952026,-0.13680802285671234
1782853715582143000,1.68714306640625,0.507766842842102,-0.20416732132434845,-0.03574833646416664
1782853715592127000,1.697126953125,0.5327257513999939,-0.27452352643013,0.09031665325164795
1782853715602112000,1.707112060546875,0.5281636118888855,-0.31746020913124084,0.22113792598247528
1782853715612096000,1.717095947265625,0.4971769154071808,-0.3253924250602722,0.3299863934516907
1782853715622081000,1.7270810546875,0.43928685784339905,-0.2914983630180359,0.38635480403900146
1782853715632066000,1.737066162109375,0.3697759807109833,-0.2314869612455368,0.37818393111228943
1782853715642050000,1.747050048828125,0.2958994209766388,-0.12958413362503052,0.30521783232688904
1782853715652035000,1.75703515625,0.2260928899049759,0.002751006744801998,0.20719727873802185
1782853715662019000,1.76701904296875,0.1657203733921051,0.13394494354724884,0.08546178042888641
1782853715672004000,1.777004150390625,0.12268049269914627,0.24477560818195343,-0.014938589185476303
1782853715681988900,1.78698876953125,0.09829355776309967,0.3111477494239807,-0.079475998878479
1782853715691972900,1.796972900390625,0.08269515633583069,0.33586612343788147,-0.1090322956442833
1782853715701958000,1.8069580078125,0.08566103130578995,0.3293914496898651,-0.1148650273680687
1782853715711942000,1.81694189453125,0.10345228016376495,0.2915641963481903,-0.10706783086061478
1782853715721927000,1.826927001953125,0.12939031422138214,0.22377413511276245,-0.09697557240724564
1782853715731912200,1.836912109375,0.15751436352729797,0.11377812922000885,-0.08334897458553314
1782853715741896000,1.84689599609375,0.1710442304611206,-0.008073315024375916,-0.058576058596372604
1782853715751881200,1.856881103515625,0.17521820962429047,-0.09498770534992218,-0.02659681811928749
1782853715761866000,1.866865966796875,0.15780076384544373,-0.1574036329984665,0.01447155512869358
1782853715771850000,1.87685009765625,0.13226769864559174,-0.17748066782951355,0.05948350578546524
1782853715781835000,1.8868349609375,0.09821546077728271,-0.1693148910999298,0.10121922940015793
1782853715791819000,1.896819091796875,0.07239878177642822,-0.14001531898975372,0.13186955451965332
1782853715801804000,1.906803955078125,0.04641132056713104,-0.1081257089972496,0.1322549283504486
1782853715811789000,1.9167890625,0.027939368039369583,-0.07834810018539429,0.11340375244617462
1782853715821773000,1.92677294921875,0.008640761487185955,-0.05130576714873314,0.0750565454363823
1782853715831758000,1.936758056640625,-0.0032465243712067604,-0.04193916171789169,0.042447201907634735
1782853715841742000,1.9467421875,-0.006926744244992733,-0.06033357232809067,0.01865389570593834
1782853715851727000,1.95672705078125,0.001633720239624381,-0.1011076271533966,0.01011340506374836
1782853715861712000,1.9667119140625,0.012082960456609726,-0.13027314841747284,0.020408987998962402
1782853715871696000,1.97669580078125,0.01108587346971035,-0.15986032783985138,0.048707470297813416
1782853715881681000,1.986680908203125,0.010742571204900742,-0.15775205194950104,0.07029515504837036
1782853715891665000,1.996664794921875,0.030250757932662964,-0.1526060253381729,0.08195900171995163
1782853715901650000,2.00664990234375,0.07380291819572449,-0.14880818128585815,0.06423578411340714
1782853715911635000,2.016635009765625,0.1061432808637619,-0.15911196172237396,0.041429005563259125
1782853715921619000,2.026618896484375,0.11894972622394562,-0.16023479402065277,0.007147164084017277
1782853715931604000,2.03660400390625,0.11415950953960419,-0.18193022906780243,-0.058959148824214935
1782853715941588000,2.046587890625,0.10675718635320663,-0.22836612164974213,-0.1623418927192688
1782853715951573200,2.0565732421875,0.1051105484366417,-0.26545462012290955,-0.2930426597595215
1782853715961558000,2.06655810546875,0.1116037592291832,-0.2625567317008972,-0.4570910334587097
1782853715971542000,2.0765419921875,0.12462501972913742,-0.25019168853759766,-0.6190599799156189
1782853715981527000,2.086527099609375,0.1304367184638977,-0.22440338134765625,-0.7623673677444458
1782853715991512000,2.096511962890625,0.12631069123744965,-0.2239956557750702,-0.8474470973014832
1782853716001496000,2.10649609375,0.1032644510269165,-0.25418204069137573,-0.8586390614509583
1782853716011481000,2.116481201171875,0.07026335597038269,-0.3098652958869934,-0.7981858849525452
1782853716021465000,2.126465087890625,0.025927945971488953,-0.36691850423812866,-0.6891331672668457
1782853716031450000,2.1364501953125,-0.05178229510784149,-0.3808697462081909,-0.5430942177772522
1782853716041435000,2.146434814453125,-0.14282678067684174,-0.3058515191078186,-0.37494096159935
1782853716051419100,2.156419189453125,-0.21680913865566254,-0.17080473899841309,-0.21925604343414307
1782853716061404000,2.16640380859375,-0.24036487936973572,-0.006888741161674261,-0.09894558787345886
1782853716071388000,2.176387939453125,-0.2266557216644287,0.14345628023147583,-0.027486581355333328
1782853716081373000,2.186373046875,-0.19554026424884796,0.24383699893951416,-0.004388684406876564
1782853716091358000,2.19635791015625,-0.15269425511360168,0.2663705348968506,-0.01155658345669508
1782853716101342000,2.206342041015625,-0.10624450445175171,0.23209531605243683,-0.03354069963097572
1782853716111327000,2.216326904296875,-0.06709736585617065,0.15796835720539093,-0.054140251129865646
1782853716121311000,2.22631103515625,-0.05145877227187157,0.06906871497631073,-0.05723847821354866
1782853716131296000,2.2362958984375,-0.054402898997068405,-0.000838196836411953,-0.03828102722764015
1782853716141281000,2.246281005859375,-0.07919669896364212,-0.03288588300347328,0.018252745270729065
1782853716151265000,2.25626513671875,-0.12450239807367325,-0.033195339143276215,0.10499110817909241
1782853716161250000,2.26625,-0.18001334369182587,-0.005239968188107014,0.19823797047138214
1782853716171234000,2.276234130859375,-0.2453060746192932,0.044235970824956894,0.2836111783981323
1782853716181219000,2.286218994140625,-0.29523271322250366,0.09518735110759735,0.32791927456855774
1782853716191204000,2.2962041015625,-0.33250126242637634,0.14438925683498383,0.32776135206222534
1782853716201188000,2.30618798828125,-0.35608601570129395,0.21294966340065002,0.30779051780700684
1782853716211173000,2.316173095703125,-0.3669075071811676,0.30866819620132446,0.2692021131515503
1782853716221157000,2.3261572265625,-0.3605214059352875,0.37301284074783325,0.22023577988147736
1782853716231142100,2.33614208984375,-0.33679184317588806,0.3849762976169586,0.16119642555713654
1782853716241127000,2.346126953125,-0.30551594495773315,0.3509746193885803,0.11737093329429626
1782853716251111000,2.35611083984375,-0.2829565703868866,0.30196526646614075,0.09197849780321121
1782853716261096000,2.366095947265625,-0.2643170654773712,0.24374015629291534,0.07968372106552124
1782853716271080000,2.376079833984375,-0.25534433126449585,0.15939678251743317,0.07190302759408951
1782853716281065000,2.38606494140625,-0.24572613835334778,0.05782739818096161,0.08215488493442535
1782853716291050000,2.396050048828125,-0.2409290075302124,-0.04965192824602127,0.10279465466737747
1782853716301034000,2.406033935546875,-0.2528369426727295,-0.1317460834980011,0.12868675589561462
1782853716311019000,2.41601904296875,-0.2680438458919525,-0.21753902733325958,0.16193446516990662
1782853716321004000,2.426004150390625,-0.29165545105934143,-0.2670871317386627,0.19112616777420044
1782853716330988000,2.435988037109375,-0.29989445209503174,-0.2588891088962555,0.21897883713245392
1782853716340973000,2.44597314453125,-0.2962800860404968,-0.21665987372398376,0.22382909059524536
1782853716350956800,2.455956787109375,-0.28380343317985535,-0.16662520170211792,0.20210382342338562
1782853716360942000,2.465942138671875,-0.28093016147613525,-0.11698118597269058,0.1785990297794342
1782853716370923500,2.475923583984375,-0.2902216613292694,-0.05426667630672455,0.14378219842910767
1782853716380907500,2.485907470703125,-0.2982911765575409,0.01181368250399828,0.09649355709552765
1782853716390892500,2.495892578125,-0.2923091948032379,0.08253844827413559,0.051948998123407364
1782853716400876500,2.50587646484375,-0.26600638031959534,0.14523613452911377,0.02089783549308777
1782853716410861600,2.515861572265625,-0.24592962861061096,0.16589027643203735,0.027928579598665237
1782853716420846600,2.5258466796875,-0.21777579188346863,0.16110563278198242,0.08600512892007828
1782853716430830600,2.53583056640625,-0.1964116394519806,0.16385161876678467,0.1763579398393631
1782853716440815600,2.545815673828125,-0.16230113804340363,0.21665768325328827,0.28226011991500854
1782853716450799600,2.555799560546875,-0.13477736711502075,0.293356716632843,0.37981438636779785
1782853716460784600,2.56578466796875,-0.11724476516246796,0.36498725414276123,0.4335204064846039
1782853716470769700,2.575769775390625,-0.09901835024356842,0.41177764534950256,0.44042518734931946
1782853716480753700,2.585753662109375,-0.07931818813085556,0.43944278359413147,0.39598292112350464
1782853716490738700,2.59573876953125,-0.0716504156589508,0.43704113364219666,0.31111544370651245
1782853716500722700,2.60572265625,-0.05099098011851311,0.40519586205482483,0.21464554965496063
1782853716510707700,2.615707763671875,-0.013989550061523914,0.3442305028438568,0.12810426950454712
1782853716520692500,2.6256923828125,0.02440260909497738,0.25864163041114807,0.07151074707508087
1782853716530676500,2.635676513671875,0.055008456110954285,0.18634746968746185,0.04577023163437843
1782853716540661500,2.64566162109375,0.08728871494531631,0.18351760506629944,0.032917432487010956
1782853716550645500,2.6556455078125,0.11201003938913345,0.22112223505973816,0.01682022027671337
1782853716560630500,2.665630615234375,0.1255490481853485,0.24156604707241058,-0.035303179174661636
1782853716570615600,2.675615478515625,0.12999732792377472,0.2203398495912552,-0.1275031417608261
1782853716580599600,2.685599609375,0.11397592723369598,0.16596131026744843,-0.24604539573192596
1782853716590584600,2.69558447265625,0.08664657175540924,0.0658610612154007,-0.3904920220375061
1782853716600568600,2.705568603515625,0.06235167011618614,-0.07941203564405441,-0.526884913444519
1782853716610553600,2.7155537109375,0.05272567644715309,-0.19614823162555695,-0.607885479927063
1782853716620538600,2.72553857421875,0.0662798285484314,-0.2255934774875641,-0.607672929763794
1782853716630522400,2.7355224609375,0.10237631946802139,-0.1586005836725235,-0.527784526348114
1782853716640507600,2.745507568359375,0.16429443657398224,-0.02770683728158474,-0.37950220704078674
1782853716650491600,2.75549169921875,0.2402762919664383,0.12015585601329803,-0.21503524482250214
1782853716660476700,2.7654765625,0.3298511207103729,0.2398422807455063,-0.08185623586177826
1782853716670461700,2.775461669921875,0.42545434832572937,0.26856765151023865,-0.016669511795043945
1782853716680445700,2.78544580078125,0.5168066620826721,0.20304575562477112,-0.011045986786484718
1782853716690430700,2.7954306640625,0.5817286968231201,0.10629230737686157,-0.024574577808380127
1782853716700414700,2.805414794921875,0.6155272722244263,0.003850305452942848,-0.04052120819687843
1782853716710399700,2.815399658203125,0.6340711712837219,-0.12865154445171356,-0.03581700101494789
1782853716720384500,2.825384521484375,0.6342976093292236,-0.2664397060871124,-0.008002525195479393
1782853716730368500,2.835368408203125,0.6183378100395203,-0.38077375292778015,0.05103229731321335
1782853716740353500,2.845353515625,0.6013244390487671,-0.45734909176826477,0.12220794707536697
1782853716750337500,2.855337646484375,0.583919107913971,-0.5096596479415894,0.17164286971092224
1782853716760322600,2.865322509765625,0.5525873303413391,-0.5202107429504395,0.1927483081817627
1782853716770307600,2.8753076171875,0.5049500465393066,-0.4870498478412628,0.17000411450862885
1782853716780291600,2.88529150390625,0.44470730423927307,-0.42215433716773987,0.11051085591316223
1782853716790276600,2.895276611328125,0.40420034527778625,-0.31560951471328735,0.028981909155845642
1782853716800260600,2.905260498046875,0.3806702196598053,-0.18340520560741425,-0.045705899596214294
1782853716810245600,2.91524560546875,0.37262988090515137,-0.03772284835577011,-0.09134235978126526
1782853716820230700,2.925230712890625,0.3685442805290222,0.10195016115903854,-0.09683149307966232
1782853716830214400,2.93521435546875,0.3559027910232544,0.21939875185489655,-0.06032434478402138
1782853716840199700,2.94519970703125,0.33764153718948364,0.32620784640312195,-0.004018737468868494
1782853716850183700,2.95518359375,0.3450099527835846,0.40781480073928833,0.05836527794599533
1782853716860168700,2.965168701171875,0.3616066575050354,0.4621875286102295,0.11780974268913269
1782853716870153700,2.97515380859375,0.3877517282962799,0.47238844633102417,0.17327328026294708
1782853716880137700,2.9851376953125,0.4179200530052185,0.45624664425849915,0.21367286145687103
1782853716890122800,2.995122802734375,0.45102769136428833,0.3981074392795563,0.23843146860599518
1782853716900106800,3.005106689453125,0.4697968065738678,0.27490222454071045,0.2540494203567505
1782853716910091500,3.015091552734375,0.47904011607170105,0.11591177433729172,0.26640117168426514
1782853716920076500,3.02507666015625,0.4779476821422577,-0.0748286098241806,0.2718598544597626
1782853716930060500,3.035060546875,0.45455020666122437,-0.2720103859901428,0.2551996409893036
1782853716940045600,3.045045654296875,0.4023479223251343,-0.4325140416622162,0.19872209429740906
1782853716950029600,3.055029541015625,0.33469218015670776,-0.5154637694358826,0.10419771075248718
1782853716960014600,3.0650146484375,0.2709082365036011,-0.5026094913482666,-0.019582046195864677
1782853716969999600,3.07499951171875,0.23491322994232178,-0.42638665437698364,-0.14709793031215668
1782853716979983600,3.084983642578125,0.2222486138343811,-0.2922150492668152,-0.27339258790016174
1782853716989968600,3.09496875,0.2244499772787094,-0.14654546976089478,-0.36148595809936523
1782853716999952600,3.10495263671875,0.22767256200313568,0.00014929380267858505,-0.40662604570388794
1782853717009937400,3.1149375,0.22790558636188507,0.11094771325588226,-0.423462837934494
1782853717019922400,3.12492236328125,0.22488515079021454,0.14863017201423645,-0.4279741048812866
1782853717029906400,3.134906494140625,0.21724854409694672,0.15216392278671265,-0.41748231649398804
1782853717039891700,3.1448916015625,0.21412460505962372,0.13032467663288116,-0.40287306904792786
1782853717049875500,3.15487548828125,0.23618942499160767,0.08664670586585999,-0.4053812325000763
1782853717059860700,3.16486083984375,0.2984751760959625,0.02706187218427658,-0.41827696561813354
1782853717069845800,3.174845703125,0.39271220564842224,-0.033034224063158035,-0.4303847849369049
1782853717079829800,3.184829833984375,0.47756364941596985,-0.11732813715934753,-0.4073471426963806
1782853717089814800,3.194814697265625,0.5338921546936035,-0.15723879635334015,-0.3514932096004486
1782853717099798800,3.204798828125,0.5492452383041382,-0.11094892024993896,-0.2835025191307068
1782853717109783600,3.214783447265625,0.5358665585517883,0.010835307650268078,-0.23270060122013092
1782853717119768600,3.2247685546875,0.5063483119010925,0.1447102129459381,-0.2143322229385376
1782853717129752600,3.234752685546875,0.4573669135570526,0.2711744010448456,-0.22434251010417938
1782853717139737600,3.244737548828125,0.376730740070343,0.37450486421585083,-0.2574552893638611
1782853717149721600,3.2547216796875,0.2800545394420624,0.40752166509628296,-0.2980373501777649
1782853717159706600,3.26470654296875,0.20377682149410248,0.3761470913887024,-0.33597293496131897
1782853717169691600,3.274691650390625,0.13846252858638763,0.32620111107826233,-0.369735449552536
1782853717179675600,3.284675537109375,0.06437445431947708,0.2686121463775635,-0.4003215432167053
1782853717189660700,3.29466064453125,-0.016581643372774124,0.22031627595424652,-0.42814600467681885
1782853717199644700,3.304644775390625,-0.07894571125507355,0.1828889399766922,-0.44757670164108276
1782853717209629400,3.31462939453125,-0.12649191915988922,0.20514045655727386,-0.46338653564453125
1782853717219614500,3.324614501953125,-0.1502183973789215,0.2718302011489868,-0.47097882628440857
1782853717229598500,3.334598388671875,-0.15751704573631287,0.36233776807785034,-0.47405609488487244
1782853717239583500,3.34458349609375,-0.15161491930484772,0.4069678485393524,-0.46480509638786316
1782853717249567500,3.3545673828125,-0.14113645255565643,0.4250467121601105,-0.4382206201553345
1782853717259552800,3.364552734375,-0.1384934037923813,0.40824759006500244,-0.3865659832954407
1782853717269537800,3.374537841796875,-0.1419837325811386,0.3625751733779907,-0.31662631034851074
1782853717279521800,3.384521728515625,-0.13929398357868195,0.2912443280220032,-0.23319390416145325
1782853717289506600,3.394506591796875,-0.14707733690738678,0.19256353378295898,-0.1394578218460083
1782853717299490800,3.40449072265625,-0.15987148880958557,0.10391504317522049,-0.03615778312087059
1782853717309475600,3.4144755859375,-0.16477037966251373,0.03262355178594589,0.06628843396902084
1782853717319460600,3.424460693359375,-0.17289918661117554,-0.022409267723560333,0.16925831139087677
1782853717329444600,3.434444580078125,-0.18944726884365082,-0.05568120256066322,0.25014808773994446
1782853717339429600,3.4444296875,-0.21866413950920105,-0.06273792684078217,0.2945079803466797
1782853717349413600,3.45441357421875,-0.2626419961452484,-0.05157901346683502,0.30001911520957947
1782853717359398700,3.464398681640625,-0.3204730451107025,-0.008025409653782845,0.26888203620910645
1782853717369386500,3.474386474609375,-0.3739652931690216,0.06622964888811111,0.21777759492397308
1782853717379370500,3.48437060546875,-0.4063224792480469,0.14120282232761383,0.1549360752105713
1782853717389355500,3.49435546875,-0.42212435603141785,0.2132711559534073,0.10420525074005127
1782853717399339500,3.504339599609375,-0.4230983555316925,0.2692379951477051,0.07155600190162659
1782853717409324300,3.51432421875,-0.41358768939971924,0.30733373761177063,0.05366409197449684
1782853717419309600,3.5243095703125,-0.4066595733165741,0.2920013964176178,0.059357691556215286
1782853717429293600,3.53429345703125,-0.39161673188209534,0.24709303677082062,0.08725456893444061
1782853717439278600,3.544278564453125,-0.38606011867523193,0.21290223300457,0.1408948302268982
1782853717449262600,3.5542626953125,-0.3876183331012726,0.1781463772058487,0.20884831249713898
1782853717459247600,3.56424755859375,-0.3965522348880768,0.12316523492336273,0.26974818110466003
1782853717469232600,3.574232666015625,-0.4045848548412323,0.04848939925432205,0.3092023730278015
1782853717479216600,3.584216552734375,-0.409168004989624,-0.04794353246688843,0.32465317845344543
1782853717489201700,3.59420166015625,-0.41688665747642517,-0.15120787918567657,0.3252529203891754
1782853717499185700,3.604185546875,-0.42133599519729614,-0.2361239641904831,0.31647124886512756
1782853717509170400,3.61417041015625,-0.4008168876171112,-0.2919880151748657,0.3104327917098999
1782853717519155500,3.624155517578125,-0.3840126693248749,-0.28834182024002075,0.285851389169693
1782853717529139500,3.634139404296875,-0.38661429286003113,-0.292696088552475,0.23465877771377563
1782853717539124500,3.64412451171875,-0.38843023777008057,-0.2990257740020752,0.21048736572265625
1782853717549108500,3.6541083984375,-0.4124394357204437,-0.20595572888851166,0.20315781235694885
1782853717559093500,3.664093505859375,-0.3939689099788666,-0.09804698079824448,0.22719599306583405
1782853717569078500,3.67407861328125,-0.3086577355861664,0.053662657737731934,0.2762620747089386
1782853717579062500,3.6840625,-0.24493633210659027,0.19809280335903168,0.3416399657726288
1782853717589047600,3.694047607421875,-0.2245410531759262,0.34281644225120544,0.41822606325149536
1782853717599031600,3.704031494140625,-0.1969098448753357,0.3973190486431122,0.5150473713874817
1782853717609016300,3.714016357421875,-0.17482851445674896,0.40252047777175903,0.6264037489891052
1782853717619001600,3.724001708984375,-0.14363287389278412,0.3716280162334442,0.720012903213501
1782853717628985300,3.7339853515625,-0.11285232752561569,0.2897624671459198,0.7761297225952148
1782853717638970600,3.743970703125,-0.08683821558952332,0.17641793191432953,0.7559882998466492
1782853717648954600,3.75395458984375,-0.06388682126998901,0.042643360793590546,0.672103762626648
1782853717658939600,3.763939697265625,-0.0668439269065857,-0.08540394902229309,0.5347576141357422
1782853717668924700,3.773924560546875,-0.08831167221069336,-0.19233305752277374,0.34545665979385376
1782853717678908700,3.78390869140625,-0.1276824027299881,-0.2761950194835663,0.11500111222267151
1782853717688893400,3.7938935546875,-0.1827768087387085,-0.31406062841415405,-0.13657812774181366
1782853717698877700,3.803877685546875,-0.25648581981658936,-0.3079570531845093,-0.3990350067615509
1782853717708862500,3.813862548828125,-0.3429861068725586,-0.27620792388916016,-0.653556227684021
1782853717718847500,3.823847412109375,-0.4320952594280243,-0.23728083074092865,-0.8930216431617737
1782853717728831500,3.83383154296875,-0.4892283082008362,-0.18140771985054016,-1.0756292343139648
1782853717738816500,3.84381640625,-0.49523764848709106,-0.06215415894985199,-1.1711889505386353
1782853717748800500,3.853800537109375,-0.4362049698829651,0.09007000178098679,-1.1648814678192139
1782853717758785500,3.86378564453125,-0.33248984813690186,0.2156994342803955,-1.0608774423599243
1782853717768770600,3.8737705078125,-0.21765753626823425,0.30006808042526245,-0.8921396136283875
1782853717778754600,3.883754638671875,-0.10690653324127197,0.32611554861068726,-0.6894915103912354
1782853717788739300,3.8937392578125,0.0030766907148063183,0.2995646297931671,-0.4801979959011078
1782853717798723600,3.9037236328125,0.1070384681224823,0.23482857644557953,-0.29889148473739624
1782853717808708400,3.913708251953125,0.1847095638513565,0.12901532649993896,-0.16630573570728302
1782853717818693600,3.923693603515625,0.239251047372818,-0.021784961223602295,-0.09310474991798401
1782853717828677400,3.933677490234375,0.2888769209384918,-0.19563186168670654,-0.06704945117235184
1782853717838662700,3.94366259765625,0.3453245759010315,-0.35730618238449097,-0.056914642453193665
1782853717848646700,3.953646728515625,0.4004354774951935,-0.49626511335372925,-0.02637404203414917
1782853717858631700,3.963631591796875,0.45043662190437317,-0.5428803563117981,0.026114284992218018
1782853717868616700,3.97361669921875,0.4788626730442047,-0.5122071504592896,0.10027159750461578
1782853717878600700,3.9836005859375,0.48997339606285095,-0.4062453806400299,0.1834363490343094
1782853717888585500,3.99358544921875,0.49478334188461304,-0.26370421051979065,0.2597369849681854
1782853717898567400,4.0035673828125,0.48886772990226746,-0.14359509944915771,0.3009769916534424
1782853717908552400,4.013552490234375,0.46829429268836975,-0.03406380116939545,0.3119502663612366
1782853717918536400,4.023536376953125,0.43553608655929565,0.08345876634120941,0.28631851077079773
1782853717928521700,4.033521728515625,0.40124040842056274,0.200086310505867,0.24323971569538116
1782853717938506500,4.043506591796875,0.3649304509162903,0.2946265935897827,0.18979893624782562
1782853717948490500,4.053490478515625,0.34283819794654846,0.3257424533367157,0.14086174964904785
1782853717958475500,4.0634755859375,0.334060937166214,0.26415470242500305,0.10806111991405487
1782853717968459500,4.07345947265625,0.32539793848991394,0.15112429857254028,0.1025017648935318
1782853717978444500,4.083444580078125,0.3197142481803894,0.06144515052437782,0.13410192728042603
1782853717988429600,4.0934296875,0.3226245641708374,-0.02088194526731968,0.18945306539535522
1782853717998413600,4.10341357421875,0.3283878266811371,-0.09827300906181335,0.25703802704811096
1782853718008398600,4.113398681640625,0.33920666575431824,-0.1689961850643158,0.31993603706359863
1782853718018382600,4.123382568359375,0.3431289792060852,-0.24054400622844696,0.3790847063064575
1782853718028367600,4.13336767578125,0.34828031063079834,-0.3250564634799957,0.4318954646587372
1782853718038352400,4.143352294921875,0.34622013568878174,-0.4150877594947815,0.4802747368812561
1782853718048336400,4.15333642578125,0.32633882761001587,-0.47972962260246277,0.5191784501075745
1782853718058321400,4.1633212890625,0.2990145683288574,-0.5309086441993713,0.5268187522888184
1782853718068305400,4.173305419921875,0.26593971252441406,-0.5578555464744568,0.4824585020542145
1782853718078290400,4.18329052734375,0.23044417798519135,-0.5522041916847229,0.40141046047210693
1782853718088274400,4.1932744140625,0.20680302381515503,-0.5226921439170837,0.2918623983860016
1782853718098259500,4.203259521484375,0.18088296055793762,-0.5050470232963562,0.18764075636863708
1782853718108244500,4.213244384765625,0.15040867030620575,-0.45964252948760986,0.10732034593820572
1782853718118228500,4.223228515625,0.12518534064292908,-0.3801500201225281,0.07704038918018341
1782853718128213500,4.233213623046875,0.1107826977968216,-0.2826637029647827,0.08772099763154984
1782853718138197500,4.243197509765625,0.11686261743307114,-0.20152729749679565,0.11682920157909393
1782853718148182500,4.2531826171875,0.1444399207830429,-0.17832477390766144,0.15433502197265625
1782853718158167600,4.26316748046875,0.18227843940258026,-0.2003096342086792,0.18990080058574677
1782853718168151600,4.273151611328125,0.210035502910614,-0.26028722524642944,0.21115230023860931
1782853718178136600,4.283136474609375,0.2334556132555008,-0.3316075801849365,0.21376290917396545
1782853718188120600,4.29312060546875,0.2543792724609375,-0.4129687547683716,0.19954562187194824
1782853718198105600,4.303105712890625,0.2751518189907074,-0.47743576765060425,0.18387943506240845
1782853718208090600,4.313090576171875,0.29188790917396545,-0.5260981321334839,0.16164630651474
1782853718218074600,4.32307470703125,0.2954427897930145,-0.5611304640769958,0.12779590487480164
1782853718228059600,4.3330595703125,0.2593953013420105,-0.5669313669204712,0.09836291521787643
1782853718238043600,4.343043701171875,0.17845210433006287,-0.4905702769756317,0.08376210927963257
1782853718248028400,4.3530283203125,0.07930421829223633,-0.3357734978199005,0.07617449760437012
1782853718258013400,4.363013427734375,-0.03277908265590668,-0.14024442434310913,0.04283957555890083
1782853718267997400,4.37299755859375,-0.15325888991355896,0.059545114636421204,-0.012156032025814056
1782853718277982500,4.382982421875,-0.2606145739555359,0.2117333710193634,-0.08887764066457748
1782853718287966500,4.392966552734375,-0.33930566906929016,0.2961518466472626,-0.1635444164276123
1782853718297951500,4.402951416015625,-0.40152695775032043,0.3217897117137909,-0.20974856615066528
1782853718307936500,4.4129365234375,-0.44125333428382874,0.34167101979255676,-0.20442864298820496
1782853718317920500,4.42292041015625,-0.4641003906726837,0.37923240661621094,-0.15405234694480896
1782853718327905500,4.432905517578125,-0.4577237069606781,0.4466586112976074,-0.07576633989810944
1782853718337889500,4.4428896484375,-0.4343077838420868,0.5424173474311829,0.010998341254889965
1782853718347874600,4.45287451171875,-0.40425747632980347,0.6295165419578552,0.0724039077758789
1782853718357859600,4.462859619140625,-0.3819428086280823,0.654435396194458,0.08561362326145172
1782853718367843600,4.472843505859375,-0.3740534782409668,0.6191138625144958,0.06453816592693329
1782853718377825300,4.4828251953125,-0.3770809471607208,0.5448499321937561,0.010259302332997322
1782853718387809300,4.492809326171875,-0.39044469594955444,0.47002047300338745,-0.059760261327028275
1782853718397794300,4.502794189453125,-0.40732520818710327,0.41862890124320984,-0.12870457768440247
1782853718407778300,4.5127783203125,-0.4239236116409302,0.38977035880088806,-0.1738358438014984
1782853718417763300,4.522763427734375,-0.4515497088432312,0.3585375249385834,-0.20229284465312958
1782853718427748000,4.532748046875,-0.4822508990764618,0.30822908878326416,-0.19306951761245728
1782853718437732000,4.542732177734375,-0.5092014074325562,0.23001165688037872,-0.1527082473039627
1782853718447717000,4.552717041015625,-0.5405741930007935,0.16060222685337067,-0.085991270840168
1782853718457701000,4.562701171875,-0.5769609212875366,0.11148062348365784,-0.016703814268112183
1782853718467686100,4.57268603515625,-0.6088730096817017,0.06238657236099243,0.03838447108864784
1782853718477671400,4.58267138671875,-0.6279726624488831,0.02256738767027855,0.08094675093889236
1782853718487655200,4.5926552734375,-0.6166782379150391,-0.011509089730679989,0.1235450804233551
1782853718497640400,4.602640380859375,-0.5879562497138977,-0.05092780292034149,0.17474967241287231
1782853718507624400,4.61262451171875,-0.541384220123291,-0.11500665545463562,0.22291453182697296
1782853718517609500,4.622609375,-0.49654829502105713,-0.20964089035987854,0.2636094093322754
1782853718527595300,4.63259521484375,-0.4487309753894806,-0.2624444365501404,0.2946240305900574
1782853718537579300,4.642579345703125,-0.382047563791275,-0.23935917019844055,0.308583527803421
1782853718547564300,4.652564208984375,-0.2900795638561249,-0.20822574198246002,0.30879896879196167
1782853718557548300,4.66254833984375,-0.20052160322666168,-0.16126801073551178,0.2822069525718689
1782853718567533300,4.672533203125,-0.1266164779663086,-0.12618857622146606,0.24048160016536713
1782853718577518300,4.682518310546875,-0.08309955894947052,-0.13250647485256195,0.20482982695102692
1782853718587502300,4.69250244140625,-0.058632299304008484,-0.17637433111667633,0.19316358864307404
1782853718597487000,4.702487060546875,-0.05429075285792351,-0.21792598068714142,0.19616663455963135
1782853718607471000,4.71247119140625,-0.07482904940843582,-0.2551942467689514,0.197577565908432
1782853718617456000,4.7224560546875,-0.11405262351036072,-0.2825169563293457,0.19307257235050201
1782853718627441200,4.732441162109375,-0.1552053838968277,-0.2902694046497345,0.18219009041786194
1782853718637425200,4.742425048828125,-0.18409238755702972,-0.2612956166267395,0.18025973439216614
1782853718647410400,4.752410400390625,-0.20240667462348938,-0.22146858274936676,0.1899070292711258
1782853718657394200,4.762394287109375,-0.22050024569034576,-0.1976131796836853,0.1985335648059845
1782853718667379500,4.77237939453125,-0.2276495099067688,-0.1857069879770279,0.19652926921844482
1782853718677364200,4.7823642578125,-0.20775175094604492,-0.18608355522155762,0.18970823287963867
1782853718687348500,4.792348388671875,-0.17439113557338715,-0.18356819450855255,0.1816934496164322
1782853718697333200,4.802333251953125,-0.13610924780368805,-0.13753831386566162,0.18672814965248108
1782853718707317200,4.812317138671875,-0.09463157504796982,-0.06358180940151215,0.2082185298204422
1782853718717302300,4.82230224609375,-0.07230136543512344,-0.006773327477276325,0.24760210514068604
1782853718727287300,4.832287353515625,-0.09362875670194626,0.04186797887086868,0.2756859362125397
1782853718737271300,4.842271240234375,-0.143630251288414,0.06652352958917618,0.2766822576522827
1782853718747256300,4.85225634765625,-0.16741307079792023,0.07083385437726974,0.2816205620765686
1782853718757240300,4.862240234375,-0.13789024949073792,0.09481954574584961,0.30334338545799255
1782853718767225300,4.872225341796875,-0.07476188987493515,0.1344713419675827,0.3348906636238098
1782853718777209300,4.882209228515625,-0.01605471409857273,0.16668634116649628,0.3548787832260132
1782853718787194400,4.8921943359375,0.018291542306542397,0.2151913046836853,0.34985581040382385
1782853718797179100,4.90217919921875,0.018584903329610825,0.30081725120544434,0.30974969267845154
1782853718807163100,4.9121630859375,-0.01516746636480093,0.3718320429325104,0.2137531191110611
1782853718817148200,4.922148193359375,-0.06632914394140244,0.3728180229663849,0.03723428398370743
1782853718827132200,4.932132080078125,-0.1202339231967926,0.2998942732810974,-0.1888558268547058
1782853718837117200,4.9421171875,-0.16697107255458832,0.20941418409347534,-0.4210158586502075
1782853718847102200,4.952102294921875,-0.21981243789196014,0.14255286753177643,-0.6088408827781677
1782853718857086200,4.962086181640625,-0.28149646520614624,0.1283717155456543,-0.727932870388031
1782853718867071500,4.972071533203125,-0.3265928328037262,0.15992724895477295,-0.7869521975517273
1782853718877055200,4.98205517578125,-0.34873682260513306,0.24715276062488556,-0.7781919240951538
1782853718887040300,4.992040283203125,-0.33599093556404114,0.40647026896476746,-0.7096728086471558
1782853718897025300,5.002025390625,-0.2797667980194092,0.6197119355201721,-0.5931134223937988
1782853718907009300,5.01200927734375,-0.2004149705171585,0.8022192120552063,-0.4595436155796051
1782853718916994300,5.021994384765625,-0.1034243255853653,0.8759286403656006,-0.33817991614341736
1782853718926978300,5.031978271484375,0.012352876365184784,0.7925258874893188,-0.24004453420639038
1782853718936963300,5.04196337890625,0.12958495318889618,0.6173061728477478,-0.16275517642498016
1782853718946947300,5.051947265625,0.2425764799118042,0.3871123790740967,-0.0988459512591362
1782853718956932400,5.061932373046875,0.3492632806301117,0.1063101589679718,-0.04934021458029747
1782853718966917400,5.07191748046875,0.44747480750083923,-0.23071898519992828,-0.005902457516640425
1782853718976901400,5.0819013671875,0.5330754518508911,-0.584418535232544,0.04064055532217026
1782853718986886100,5.09188623046875,0.6011418700218201,-0.866181492805481,0.10423710942268372
1782853718996870400,5.101870361328125,0.6374698281288147,-1.0290732383728027,0.17477348446846008
1782853719006855200,5.111855224609375,0.6363816857337952,-1.1013858318328857,0.24756139516830444
1782853719016840200,5.121840087890625,0.6107510924339294,-1.0739598274230957,0.3080425262451172
1782853719026824200,5.13182421875,0.5613449215888977,-0.938863217830658,0.3384696841239929
1782853719036809200,5.141809326171875,0.4941307604312897,-0.7182051539421082,0.33450961112976074
1782853719046793200,5.151793212890625,0.42012685537338257,-0.4386473000049591,0.28860658407211304
1782853719056778200,5.1617783203125,0.37498244643211365,-0.1748725026845932,0.20449404418468475
1782853719066763300,5.17176318359375,0.3464783728122711,0.05781560391187668,0.0980440303683281
1782853719076747300,5.181747314453125,0.3194178640842438,0.2359185516834259,-0.013112830929458141
1782853719086732300,5.191732177734375,0.29325976967811584,0.34845787286758423,-0.10973498225212097
1782853719096716300,5.20171630859375,0.2791736423969269,0.4006555676460266,-0.1875121146440506
1782853719106701300,5.211701416015625,0.2856837213039398,0.3916895091533661,-0.23486684262752533
1782853719116686300,5.221686279296875,0.2991026043891907,0.3460436165332794,-0.25337037444114685
1782853719126670300,5.23167041015625,0.31905072927474976,0.26749661564826965,-0.23496019840240479
1782853719136655400,5.2416552734375,0.3268813192844391,0.17153722047805786,-0.18805184960365295
1782853719146639400,5.251639404296875,0.33827272057533264,0.09132521599531174,-0.12024857103824615
1782853719156624400,5.261624267578125,0.35411491990089417,0.016456997022032738,-0.04393775388598442
1782853719166608400,5.2716083984375,0.3623499572277069,-0.056789785623550415,0.024153947830200195
1782853719176593400,5.281593505859375,0.3599063754081726,-0.13486450910568237,0.0613156333565712
1782853719186578200,5.291578125,0.34702786803245544,-0.232549786567688,0.06156144291162491
1782853719196562200,5.301562255859375,0.31850776076316833,-0.34630104899406433,0.03362605348229408
1782853719206547200,5.311547119140625,0.27777522802352905,-0.4405532479286194,0.00018181093037128448
1782853719216531200,5.32153125,0.2181781828403473,-0.5005403161048889,-0.039556704461574554
1782853719226516200,5.33151611328125,0.15368175506591797,-0.47041600942611694,-0.08523178100585938
1782853719236501200,5.341501220703125,0.10421011596918106,-0.422549307346344,-0.14800703525543213
1782853719246485200,5.3514853515625,0.07563945651054382,-0.43836313486099243,-0.24176707863807678
1782853719256470300,5.36147021484375,0.056109968572854996,-0.4706989824771881,-0.33623233437538147
1782853719266454300,5.371454345703125,0.045339614152908325,-0.466264545917511,-0.40433335304260254
1782853719276439300,5.381439208984375,0.047019027173519135,-0.3951503336429596,-0.42741525173187256
1782853719286423300,5.39142333984375,0.05387001112103462,-0.23708242177963257,-0.41813626885414124
1782853719296408000,5.401407958984375,0.07261597365140915,-0.03815154358744621,-0.3778687119483948
1782853719306393300,5.411393310546875,0.10009419918060303,0.1700645089149475,-0.32835444808006287
1782853719316377000,5.421377197265625,0.1475401371717453,0.3505590260028839,-0.2745875418186188
1782853719326362400,5.4313623046875,0.20799921452999115,0.42879125475883484,-0.22706449031829834
1782853719336346400,5.441346435546875,0.2497485876083374,0.4201584756374359,-0.18975010514259338
1782853719346331400,5.451331298828125,0.2755463719367981,0.34437689185142517,-0.15919458866119385
1782853719356316400,5.46131640625,0.2661094069480896,0.24466925859451294,-0.15284070372581482
1782853719366300400,5.471300537109375,0.21699966490268707,0.12795622646808624,-0.17834927141666412
1782853719376285200,5.48128515625,0.1447833776473999,0.01756744459271431,-0.23407702147960663
1782853719386269200,5.491269287109375,0.06676739454269409,-0.06088155508041382,-0.3230649530887604
1782853719396254000,5.50125390625,-0.0170405525714159,-0.13729159533977509,-0.4440944790840149
1782853719406239000,5.511239013671875,-0.10702476650476456,-0.23044949769973755,-0.5986068844795227
1782853719416223000,5.521222900390625,-0.17152900993824005,-0.2988836169242859,-0.7432681322097778
1782853719426208000,5.5312080078125,-0.2080630511045456,-0.3220602869987488,-0.8268418908119202
1782853719436192000,5.54119189453125,-0.2402580976486206,-0.2747807204723358,-0.8316708207130432
1782853719446177000,5.551177001953125,-0.27253827452659607,-0.2140750288963318,-0.7601593136787415
1782853719456161000,5.5611611328125,-0.2901177704334259,-0.14769907295703888,-0.6302600502967834
1782853719466146000,5.57114599609375,-0.291155606508255,-0.014708531089127064,-0.4639618694782257
1782853719476131000,5.581131103515625,-0.26440632343292236,0.12791280448436737,-0.29250603914260864
1782853719486115000,5.591114990234375,-0.21734772622585297,0.2501617670059204,-0.15089751780033112
1782853719496099800,5.601099853515625,-0.17072926461696625,0.32700586318969727,-0.0561818853020668
1782853719506083800,5.611083740234375,-0.12157849967479706,0.3476645350456238,-0.014725787565112114
1782853719516068900,5.62106884765625,-0.07203227281570435,0.31102076172828674,-0.015643585473299026
1782853719526054000,5.631053955078125,-0.04409705102443695,0.22600813210010529,-0.03658774867653847
1782853719536038000,5.641037841796875,-0.05567622557282448,0.1217670738697052,-0.057342469692230225
1782853719546023000,5.65102294921875,-0.09222731739282608,0.027995318174362183,-0.04127029329538345
1782853719556007000,5.6610068359375,-0.13539791107177734,-0.04885745793581009,0.019696282222867012
1782853719565992000,5.670991943359375,-0.18208633363246918,-0.0915742963552475,0.11514690518379211
1782853719575977000,5.68097705078125,-0.22193767130374908,-0.06838174164295197,0.2164819985628128
1782853719585961000,5.6909609375,-0.24768111109733582,0.004980620928108692,0.31062766909599304
1782853719595946000,5.700946044921875,-0.25909361243247986,0.0908544659614563,0.36435556411743164
1782853719605930000,5.710929931640625,-0.2687923312187195,0.1785198599100113,0.36958521604537964
1782853719615915000,5.7209150390625,-0.2661486566066742,0.2790561020374298,0.33666226267814636
1782853719625899000,5.73089892578125,-0.24728389084339142,0.3669225573539734,0.2846696078777313
1782853719635884000,5.740884033203125,-0.22102737426757812,0.4387723207473755,0.22316013276576996
1782853719645869000,5.750869140625,-0.19232702255249023,0.4755271375179291,0.15096129477024078
1782853719655853000,5.76085302734375,-0.15551486611366272,0.46045053005218506,0.07709489017724991
1782853719665838000,5.770838134765625,-0.13129740953445435,0.4002455174922943,0.005891815759241581
1782853719675822000,5.780822021484375,-0.12342198938131332,0.3189699053764343,-0.05564896762371063
1782853719685807000,5.79080712890625,-0.1369556337594986,0.2344590127468109,-0.0979791134595871
1782853719695791900,5.8007919921875,-0.17191839218139648,0.12525835633277893,-0.12752990424633026
1782853719705775900,5.81077587890625,-0.23234258592128754,0.0006852652877569199,-0.14567668735980988
1782853719715761000,5.820760986328125,-0.2946385145187378,-0.1074037104845047,-0.15521326661109924
1782853719725745000,5.830744873046875,-0.3244171738624573,-0.18364281952381134,-0.14022579789161682
1782853719735730000,5.84072998046875,-0.32171112298965454,-0.21846133470535278,-0.10521438717842102
1782853719745714000,5.8507138671875,-0.2964435815811157,-0.23400327563285828,-0.05768122524023056
1782853719755699000,5.860698974609375,-0.26341432332992554,-0.23643858730793,0.0019599534571170807
1782853719765684000,5.87068408203125,-0.2358708530664444,-0.21100139617919922,0.0826295018196106
1782853719775668000,5.88066796875,-0.2215030938386917,-0.16004706919193268,0.1733366847038269
1782853719785653000,5.890653076171875,-0.21102169156074524,-0.07388795167207718,0.25928884744644165
1782853719795637000,5.900636962890625,-0.21120160818099976,0.012401372194290161,0.3143010139465332
1782853719805622000,5.9106220703125,-0.21558356285095215,0.06255988031625748,0.33535489439964294
1782853719815607000,5.92060693359375,-0.22066417336463928,0.0939883217215538,0.3321493864059448
1782853719825591000,5.930591064453125,-0.2187240570783615,0.12892873585224152,0.31932494044303894
1782853719835576000,5.940576171875,-0.21517400443553925,0.15289437770843506,0.30888453125953674
1782853719845560000,5.95056005859375,-0.20457808673381805,0.20706786215305328,0.3289431929588318
1782853719855545000,5.960545166015625,-0.20138372480869293,0.2904019355773926,0.37556135654449463
1782853719865529000,5.970529052734375,-0.18536214530467987,0.3384743630886078,0.4222361743450165
1782853719875514000,5.98051416015625,-0.16855674982070923,0.31537604331970215,0.4480406641960144
1782853719885499000,5.990498779296875,-0.16117925941944122,0.24889713525772095,0.45078715682029724
1782853719895483100,6.000483154296875,-0.17632652819156647,0.1453431248664856,0.4181937277317047
1782853719905468000,6.010468017578125,-0.19849734008312225,0.0007111094892024994,0.3455469310283661
1782853719915452000,6.020451904296875,-0.2180691659450531,-0.14722596108913422,0.24721993505954742
1782853719925437000,6.03043701171875,-0.24747684597969055,-0.2846978008747101,0.15163269639015198
1782853719935422000,6.040421875,-0.29840585589408875,-0.42408257722854614,0.05691303312778473
1782853719945406000,6.050406005859375,-0.3670347034931183,-0.5104030966758728,-0.03843159228563309
1782853719955391000,6.060390869140625,-0.4139770269393921,-0.43622642755508423,-0.10461209714412689
1782853719965375000,6.070375,-0.4462431073188782,-0.21488843858242035,-0.1519218236207962
1782853719975360000,6.080360107421875,-0.47033974528312683,0.03801572695374489,-0.21449187397956848
1782853719985344000,6.090343994140625,-0.48866868019104004,0.2647210657596588,-0.3093656599521637
1782853719995329000,6.1003291015625,-0.48702818155288696,0.46238991618156433,-0.420594185590744
1782853720005313800,6.110313720703125,-0.46368396282196045,0.5950886011123657,-0.508953869342804
1782853720015297800,6.1202978515625,-0.4020182192325592,0.6251770853996277,-0.5448041558265686
1782853720025283000,6.130282958984375,-0.3060925006866455,0.615369975566864,-0.5083430409431458
1782853720035266800,6.140266845703125,-0.19520193338394165,0.5955069661140442,-0.3922662138938904
1782853720045252000,6.150252197265625,-0.07723934203386307,0.5857797265052795,-0.23012202978134155
1782853720055237000,6.160237060546875,0.0523504875600338,0.5634900331497192,-0.06107347458600998
1782853720065221000,6.17022119140625,0.17000921070575714,0.4994218349456787,0.08049670606851578
1782853720075206100,6.1802060546875,0.27383923530578613,0.3764752447605133,0.16955171525478363
1782853720085190100,6.190190185546875,0.35183417797088623,0.1997651755809784,0.19864967465400696
1782853720095175000,6.2001748046875,0.4027393162250519,-0.035698577761650085,0.1733982414007187
1782853720105159200,6.2101591796875,0.43334460258483887,-0.297004759311676,0.111463762819767
1782853720115144000,6.22014404296875,0.44255533814430237,-0.5074222683906555,0.0494176521897316
1782853720125129000,6.23012890625,0.4460315704345703,-0.6479066610336304,0.013732893392443657
1782853720135113000,6.240113037109375,0.4403940439224243,-0.7223983407020569,0.030192865058779716
1782853720145098000,6.250097900390625,0.42019128799438477,-0.7298769950866699,0.0934772938489914
1782853720155082000,6.26008203125,0.38960719108581543,-0.6920830607414246,0.18958158791065216
1782853720165067000,6.27006689453125,0.3581467270851135,-0.6169734001159668,0.29695090651512146
1782853720175052000,6.280052001953125,0.32637789845466614,-0.5073052644729614,0.3796370029449463
1782853720185036000,6.2900361328125,0.28529250621795654,-0.388204962015152,0.42007604241371155
1782853720195020800,6.300020751953125,0.24232231080532074,-0.2638622522354126,0.40488845109939575
1782853720205005000,6.310005126953125,0.209816575050354,-0.12261220067739487,0.35605940222740173
1782853720214989800,6.31998974609375,0.18407100439071655,0.014706374146044254,0.28184178471565247
1782853720224973800,6.329973876953125,0.16762278974056244,0.08933933079242706,0.1974555253982544
1782853720234958800,6.339958740234375,0.15457099676132202,0.11509846150875092,0.1213093176484108
1782853720244944100,6.349944091796875,0.14871710538864136,0.13319358229637146,0.08259307593107224
1782853720254928000,6.359927978515625,0.15036101639270782,0.15790872275829315,0.07423069328069687
1782853720264913200,6.3699130859375,0.15166595578193665,0.17691276967525482,0.09458629786968231
1782853720274897200,6.379897216796875,0.17298750579357147,0.18230748176574707,0.12094927579164505
1782853720284882200,6.389882080078125,0.20604932308197021,0.16611304879188538,0.14787623286247253
1782853720294867000,6.399866943359375,0.24256280064582825,0.1225062757730484,0.17121221125125885
1782853720304851000,6.409850830078125,0.28770312666893005,0.049797721207141876,0.19434496760368347
1782853720314836000,6.4198359375,0.33906030654907227,-0.05806030333042145,0.23528441786766052
1782853720324820000,6.429820068359375,0.3709213137626648,-0.19572335481643677,0.3082912564277649
1782853720334805000,6.439804931640625,0.3742356598377228,-0.34950917959213257,0.406090646982193
1782853720344789000,6.4497890625,0.3555128574371338,-0.48180118203163147,0.5135462284088135
1782853720354774000,6.45977392578125,0.3246384859085083,-0.5470327734947205,0.6210173964500427
1782853720364759000,6.469759033203125,0.2785000205039978,-0.5424002408981323,0.7041831016540527
1782853720374743600,6.47974365234375,0.2155812680721283,-0.4734439253807068,0.7303354740142822
1782853720384728300,6.489728271484375,0.14241357147693634,-0.39198288321495056,0.6837466955184937
1782853720394712600,6.499712646484375,0.07876935601234436,-0.32699769735336304,0.5480902791023254
1782853720404697300,6.509697265625,0.030451355502009392,-0.28372132778167725,0.37180522084236145
1782853720414682400,6.519682373046875,-0.0010833349078893661,-0.2440222054719925,0.19400110840797424
1782853720424666400,6.529666259765625,-0.03400533273816109,-0.19148549437522888,0.07644384354352951
1782853720434651400,6.5396513671875,-0.0766318291425705,-0.14023298025131226,0.02535950392484665
1782853720444635400,6.549635498046875,-0.1215396374464035,-0.09361647069454193,0.01821610890328884
1782853720454620700,6.55962060546875,-0.14576680958271027,-0.032783254981040955,0.027904212474822998
1782853720464604400,6.5696044921875,-0.15288276970386505,0.02020726166665554,0.017336256802082062
1782853720474589700,6.579589599609375,-0.14340631663799286,0.07393178343772888,-0.028043795377016068
1782853720484574500,6.589574462890625,-0.12909743189811707,0.09601737558841705,-0.08965203911066055
1782853720494558500,6.599558349609375,-0.12290974706411362,0.08082421869039536,-0.16862940788269043
1782853720504543500,6.60954345703125,-0.13883011043071747,0.05281016230583191,-0.2621583044528961
1782853720514527500,6.619527587890625,-0.1756058782339096,0.03104957565665245,-0.3623889088630676
1782853720524512500,6.629512451171875,-0.22399099171161652,0.02785644680261612,-0.4818388819694519
1782853720534496500,6.63949658203125,-0.29742372035980225,0.023461315780878067,-0.6204804182052612
1782853720544481500,6.6494814453125,-0.39486560225486755,-0.002247241325676441,-0.7863865494728088
1782853720554466600,6.659466552734375,-0.516816258430481,-0.08951856940984726,-0.9687051177024841
1782853720564450600,6.669450439453125,-0.6278231739997864,-0.22376824915409088,-1.1328115463256836
1782853720574435600,6.679435546875,-0.7078269720077515,-0.3631816804409027,-1.2305089235305786
1782853720584419600,6.689419677734375,-0.7691459655761719,-0.45640137791633606,-1.2460614442825317
1782853720594404400,6.699404296875,-0.8013872504234314,-0.48711642622947693,-1.166161298751831
1782853720604389400,6.709389404296875,-0.792448103427887,-0.5041124224662781,-1.010386347770691
1782853720614373400,6.719373291015625,-0.754638135433197,-0.5150731205940247,-0.8095364570617676
1782853720624358400,6.7293583984375,-0.7056441903114319,-0.49475401639938354,-0.5980676412582397
1782853720634342400,6.73934228515625,-0.6478729844093323,-0.4613270163536072,-0.4105983078479767
1782853720644327400,6.749327392578125,-0.5820431113243103,-0.4231458008289337,-0.26470208168029785
1782853720654311400,6.7593115234375,-0.5024194121360779,-0.3853037655353546,-0.17466047406196594
1782853720664296400,6.76929638671875,-0.4037735164165497,-0.33586564660072327,-0.12298423051834106
1782853720674281500,6.779281494140625,-0.3108982443809509,-0.25147897005081177,-0.08435298502445221
1782853720684265500,6.789265380859375,-0.2490665763616562,-0.145213782787323,-0.05473863705992699
1782853720694250500,6.79925048828125,-0.216387078166008,-0.02273876592516899,-0.020947623997926712
1782853720704234500,6.809234375,-0.202453151345253,0.08492324501276016,0.01233869418501854
1782853720714219500,6.819219482421875,-0.19421197474002838,0.16771206259727478,0.034359659999608994
1782853720724204500,6.82920458984375,-0.17336022853851318,0.21915875375270844,0.04311347007751465
1782853720734188500,6.8391884765625,-0.14379099011421204,0.21295954287052155,0.045159537345170975
1782853720744173600,6.849173583984375,-0.1114940345287323,0.191146120429039,0.0554148368537426
1782853720754157600,6.859157470703125,-0.0848291739821434,0.1982285976409912,0.07950164377689362
1782853720764142600,6.869142578125,-0.06922172009944916,0.2443377822637558,0.10780651867389679
1782853720774126600,6.879126708984375,-0.06024068593978882,0.3095857799053192,0.12349952012300491
1782853720784111600,6.889111572265625,-0.0579594224691391,0.3832187354564667,0.13045568764209747
1782853720794096400,6.899096435546875,-0.05087019503116608,0.43446698784828186,0.12281274050474167
1782853720804080400,6.909080322265625,-0.0345040038228035,0.4235647916793823,0.10017427802085876
1782853720814065400,6.9190654296875,-0.011346779763698578,0.36171767115592957,0.08039651066064835
1782853720824049400,6.92904931640625,0.015548750758171082,0.28705570101737976,0.06911402195692062
1782853720834034400,6.939034423828125,0.029052479192614555,0.21001997590065002,0.08528518676757812
1782853720844018400,6.949018310546875,0.03189700096845627,0.13117897510528564,0.10867945849895477
1782853720854003500,6.95900341796875,0.027232324704527855,0.04535472393035889,0.133748397231102
1782853720863988500,6.968988525390625,0.010873591527342796,-0.03292649984359741,0.16784325242042542
1782853720873972500,6.978972412109375,-0.014594623818993568,-0.07077471911907196,0.1965416669845581
1782853720883957500,6.98895751953125,-0.03899077698588371,-0.08478853851556778,0.22494135797023773
1782853720893941500,6.99894140625,-0.07624241709709167,-0.09310900419950485,0.258480042219162
1782853720903926300,7.00892626953125,-0.10850634425878525,-0.07301358878612518,0.2985893785953522
1782853720913911600,7.01891162109375,-0.14201819896697998,-0.019814368337392807,0.34120652079582214
1782853720923895600,7.0288955078125,-0.16528144478797913,0.028103623539209366,0.3795158267021179
1782853720933880600,7.038880615234375,-0.17437659204006195,0.047575559467077255,0.3993491232395172
1782853720943864600,7.048864501953125,-0.1737036108970642,0.06387623399496078,0.39810994267463684
1782853720953849600,7.058849609375,-0.1587398648262024,0.06836360692977905,0.37151405215263367
1782853720963833600,7.06883349609375,-0.11998926848173141,0.12015916407108307,0.3228016495704651
1782853720973818600,7.078818603515625,-0.044096413999795914,0.2573918104171753,0.27835553884506226
1782853720983803400,7.088803466796875,0.05519847944378853,0.43061232566833496,0.2505880892276764
1782853720993787600,7.09878759765625,0.14666305482387543,0.5742465853691101,0.2554640769958496
1782853721003772400,7.1087724609375,0.1927730143070221,0.6322435736656189,0.26515907049179077
1782853721013756400,7.11875634765625,0.18612903356552124,0.6077775359153748,0.27253806591033936
1782853721023741400,7.128741455078125,0.15906013548374176,0.5181456804275513,0.29512912034988403
1782853721033725400,7.138725341796875,0.12054453790187836,0.3657289445400238,0.32309597730636597
1782853721043710500,7.14871044921875,0.07949404418468475,0.13540175557136536,0.34025606513023376
1782853721053695500,7.158695556640625,0.05388627201318741,-0.11563301831483841,0.3293779194355011
1782853721063679500,7.168679443359375,0.057657577097415924,-0.23481053113937378,0.2898307740688324
1782853721073664500,7.17866455078125,0.09310540556907654,-0.19796587526798248,0.23734933137893677
1782853721083648500,7.1886484375,0.13211113214492798,-0.12696626782417297,0.16511321067810059
1782853721093633500,7.198633544921875,0.16190631687641144,-0.09583459049463272,0.050300247967243195
1782853721103617500,7.208617431640625,0.1591520756483078,-0.09849321842193604,-0.08088254183530807
1782853721113602300,7.218602294921875,0.1489526331424713,-0.12602540850639343,-0.21162593364715576
1782853721123587300,7.22858740234375,0.12240463495254517,-0.15856949985027313,-0.3383122384548187
1782853721133571300,7.2385712890625,0.10625564306974411,-0.14495748281478882,-0.43281692266464233
1782853721143556600,7.248556640625,0.11107330769300461,-0.057729899883270264,-0.46784573793411255
1782853721153540400,7.258540283203125,0.14173127710819244,0.07128596305847168,-0.43511438369750977
1782853721163525600,7.268525634765625,0.18759331107139587,0.23232917487621307,-0.3334774971008301
1782853721173510700,7.2785107421875,0.23365376889705658,0.3874613046646118,-0.2089097499847412
1782853721183494700,7.28849462890625,0.2826881408691406,0.4802199900150299,-0.11492733657360077
1782853721193479400,7.2984794921875,0.3468816578388214,0.4933450222015381,-0.08250921219587326
1782853721203463700,7.308463623046875,0.4285421669483185,0.43055009841918945,-0.09995079040527344
1782853721213448400,7.318448486328125,0.5104725360870361,0.29471033811569214,-0.1207054853439331
1782853721223432400,7.328432373046875,0.5769703388214111,0.06802952289581299,-0.12314014136791229
1782853721233417500,7.33841748046875,0.6314805150032043,-0.18516755104064941,-0.08767594397068024
1782853721243402500,7.348402587890625,0.6858004927635193,-0.35450518131256104,0.0017133215442299843
1782853721253386500,7.358386474609375,0.758732259273529,-0.3942103087902069,0.12024211138486862
1782853721263371500,7.36837158203125,0.8548422455787659,-0.37028977274894714,0.2562878429889679
1782853721273355500,7.37835546875,0.9362624883651733,-0.3389935791492462,0.3821975886821747
1782853721283340500,7.388340576171875,0.971028208732605,-0.30023154616355896,0.46960970759391785
1782853721293325300,7.3983251953125,0.9609580039978027,-0.23869167268276215,0.4909925162792206
1782853721303309600,7.4083095703125,0.9146064519882202,-0.21225793659687042,0.45019420981407166
1782853721313294300,7.41829443359375,0.8544695377349854,-0.2067558318376541,0.3543998897075653
1782853721323278300,7.4282783203125,0.7847429513931274,-0.24433782696723938,0.2483285814523697
1782853721333263400,7.438263427734375,0.7083870768547058,-0.30649831891059875,0.15774382650852203
1782853721343247400,7.448247314453125,0.6300398111343384,-0.34689581394195557,0.11706271022558212
1782853721353232400,7.458232421875,0.563164234161377,-0.3267870247364044,0.12101946026086807
1782853721363217700,7.4682177734375,0.5169996619224548,-0.2597842812538147,0.1612534373998642
1782853721373201400,7.478201416015625,0.489372581243515,-0.16163688898086548,0.21331563591957092
1782853721383186000,7.48818603515625,0.4958171546459198,-0.04884536936879158,0.25595974922180176
1782853721393170000,7.498169921875,0.5171478986740112,0.09031160175800323,0.26923057436943054
1782853721403155200,7.5081552734375,0.5486488342285156,0.1967618763446808,0.2667351961135864
1782853721413139000,7.518138916015625,0.5851876139640808,0.22769007086753845,0.26132839918136597
1782853721423124000,7.5281240234375,0.6019706130027771,0.16259440779685974,0.2562097907066345
1782853721433109000,7.53810888671875,0.5807368755340576,0.0362362340092659,0.26621878147125244
1782853721443093000,7.548093017578125,0.53079754114151,-0.09974503517150879,0.27959582209587097
1782853721453078000,7.558078125,0.4642772078514099,-0.19957593083381653,0.28613775968551636
1782853721463062000,7.56806201171875,0.388622909784317,-0.23055674135684967,0.263084352016449
1782853721473047000,7.578047119140625,0.30779141187667847,-0.19501245021820068,0.2031572312116623
1782853721483031000,7.588031005859375,0.23598596453666687,-0.09375747293233871,0.1202428936958313
1782853721493016000,7.59801611328125,0.1804266721010208,0.021236266940832138,0.026098188012838364
1782853721503001000,7.6080009765625,0.16102474927902222,0.09223268181085587,-0.05637005344033241
1782853721512985000,7.617985107421875,0.1627054661512375,0.08842668682336807,-0.10162373632192612
1782853721522969900,7.627969970703125,0.1595030277967453,-0.0036353282630443573,-0.10335079580545425
1782853721532953900,7.637953857421875,0.13853245973587036,-0.1118549257516861,-0.06838151812553406
1782853721542939000,7.64793896484375,0.10856258124113083,-0.13716241717338562,-0.006529870443046093
1782853721552924000,7.657923828125,0.10438362509012222,-0.05606307089328766,0.060663506388664246
1782853721562908000,7.667907958984375,0.12859788537025452,0.06843944638967514,0.10583710670471191
1782853721572893000,7.677892822265625,0.15958288311958313,0.19439154863357544,0.09321323782205582
1782853721582877000,7.687876953125,0.1905711591243744,0.29610300064086914,0.03249316290020943
1782853721592862000,7.697862060546875,0.2267649918794632,0.3421759009361267,-0.06264709681272507
1782853721602846000,7.707845947265625,0.26022201776504517,0.3327629566192627,-0.17659418284893036
1782853721612831000,7.7178310546875,0.2795862853527069,0.3249499201774597,-0.29270732402801514
1782853721622816000,7.72781591796875,0.253876656293869,0.31604698300361633,-0.3859112858772278
1782853721632799700,7.7377998046875,0.18933527171611786,0.30526942014694214,-0.44500190019607544
1782853721642785000,7.747784912109375,0.11959215998649597,0.2659483850002289,-0.47914016246795654
1782853721652769000,7.75776904296875,0.06588524580001831,0.21493373811244965,-0.47370103001594543
1782853721662754000,7.767754150390625,0.00980173610150814,0.21308736503124237,-0.44809284806251526
1782853721672738000,7.777738037109375,-0.04780745878815651,0.2515318989753723,-0.42721590399742126
1782853721682723000,7.78772314453125,-0.09753240644931793,0.2828115224838257,-0.42780765891075134
1782853721692708000,7.7977080078125,-0.12722359597682953,0.2915339469909668,-0.42414432764053345
1782853721702692000,7.807692138671875,-0.14934195578098297,0.11620473861694336,-0.4678278863430023
1782853721712677000,7.817677001953125,-0.1744091659784317,-0.15978512167930603,-0.5416459441184998
1782853721722661000,7.8276611328125,-0.18680164217948914,-0.3598524332046509,-0.5663957595825195
1782853721732646000,7.83764599609375,-0.19074788689613342,-0.495584100484848,-0.5437703728675842
1782853721742630000,7.8476298828125,-0.19560550153255463,-0.5894192457199097,-0.502915620803833
