time,seconds_elapsed,z,y,x
1782853733372717800,0.0747177734375,-0.004147182684391737,0.7522648572921753,-0.43895843625068665
1782853733382701800,0.084701904296875,0.0390642024576664,0.6951876878738403,-0.34209927916526794
1782853733392685800,0.094685791015625,0.09156554937362671,0.5744631290435791,-0.32241585850715637
1782853733402669800,0.104669921875,0.15094444155693054,0.3427524268627167,-0.38308534026145935
1782853733412654800,0.11465478515625,0.202134907245636,0.04424184188246727,-0.4895370602607727
1782853733422638800,0.124638916015625,0.2413102686405182,-0.26407551765441895,-0.5934959650039673
1782853733432623900,0.134623779296875,0.2844443917274475,-0.5270581245422363,-0.6015406847000122
1782853733442609000,0.14460888671875,0.3369273245334625,-0.6619189977645874,-0.4817216396331787
1782853733452593000,0.154593017578125,0.4013449549674988,-0.7215929627418518,-0.23899273574352264
1782853733462578200,0.164578125,0.46957701444625854,-0.7532166838645935,0.06630033254623413
1782853733472562000,0.17456201171875,0.5429064035415649,-0.7321473956108093,0.3876078724861145
1782853733482547000,0.184546875,0.6038381457328796,-0.6520967483520508,0.6829081773757935
1782853733492531000,0.194531005859375,0.6493920683860779,-0.59110027551651,0.881119966506958
1782853733502516000,0.204515869140625,0.6556129455566406,-0.5302651524543762,0.9717364311218262
1782853733512500000,0.2145,0.6370033025741577,-0.42737433314323425,0.9468461871147156
1782853733522485000,0.224485107421875,0.6191335320472717,-0.2816506624221802,0.8454775214195251
1782853733532469000,0.234468994140625,0.6052017211914062,-0.1323426514863968,0.7060348987579346
1782853733542454000,0.2444541015625,0.5976724028587341,0.03758380562067032,0.5800524353981018
1782853733552439000,0.25443896484375,0.5824454426765442,0.2027684450149536,0.46103665232658386
1782853733562423000,0.264423095703125,0.557344377040863,0.34278255701065063,0.35673287510871887
1782853733572408000,0.274407958984375,0.537692129611969,0.4715818762779236,0.27509087324142456
1782853733582392000,0.28439208984375,0.5268261432647705,0.5965008735656738,0.22608737647533417
1782853733592376800,0.294376953125,0.5254701375961304,0.7201657891273499,0.21300089359283447
1782853733602361000,0.304361083984375,0.5310435891151428,0.789124608039856,0.21592238545417786
1782853733612345900,0.314345947265625,0.5442746877670288,0.7653113603591919,0.22129493951797485
1782853733622329900,0.324329833984375,0.5515792369842529,0.6678628325462341,0.23464135825634003
1782853733632315000,0.33431494140625,0.5704783201217651,0.5056567788124084,0.27734315395355225
1782853733642299000,0.344298828125,0.5846492648124695,0.31760114431381226,0.34482234716415405
1782853733652284000,0.354283935546875,0.576780378818512,0.13818290829658508,0.3961710035800934
1782853733662269000,0.36426904296875,0.5510489344596863,-0.0064749387092888355,0.4152184724807739
1782853733672253000,0.3742529296875,0.5233555436134338,-0.12061066925525665,0.4011337161064148
1782853733682238000,0.384238037109375,0.5054053068161011,-0.22660313546657562,0.36784738302230835
1782853733692222000,0.394221923828125,0.5006648898124695,-0.3076406717300415,0.3506886959075928
1782853733702207000,0.40420703125,0.49802279472351074,-0.3327891528606415,0.35121574997901917
1782853733712191000,0.41419091796875,0.4885871708393097,-0.3668721318244934,0.34739410877227783
1782853733722175700,0.42417578125,0.4715866148471832,-0.44298502802848816,0.3191204071044922
1782853733732159700,0.43415966796875,0.458078533411026,-0.4955154359340668,0.27672529220581055
1782853733742145000,0.44414501953125,0.4512890875339508,-0.47789064049720764,0.22349722683429718
1782853733752130000,0.454130126953125,0.4416753053665161,-0.3894680440425873,0.16056132316589355
1782853733762114000,0.464114013671875,0.4221636652946472,-0.27693378925323486,0.08118901401758194
1782853733772099000,0.47409912109375,0.39547237753868103,-0.180314838886261,-0.011089786887168884
1782853733782083000,0.4840830078125,0.3653288781642914,-0.11558909714221954,-0.1279628723859787
1782853733792068000,0.494068115234375,0.35405439138412476,-0.06672398746013641,-0.28176164627075195
1782853733802052000,0.504052001953125,0.36617282032966614,-0.046809930354356766,-0.48097488284111023
1782853733812036900,0.514036865234375,0.3959121108055115,-0.0810193419456482,-0.6956467628479004
1782853733822021000,0.524021240234375,0.42446598410606384,-0.15157712996006012,-0.8979191780090332
1782853733832006000,0.534005859375,0.40582045912742615,-0.2019607573747635,-1.0439540147781372
1782853733841990000,0.543989990234375,0.3166724741458893,-0.22283940017223358,-1.1198985576629639
1782853733851975000,0.553974853515625,0.15878474712371826,-0.27124398946762085,-1.1213009357452393
1782853733861960000,0.5639599609375,-0.060849614441394806,-0.2926925718784332,-1.0823581218719482
1782853733871944000,0.57394384765625,-0.2972669005393982,-0.25364992022514343,-1.020796537399292
1782853733881929000,0.583928955078125,-0.510292112827301,-0.17367412149906158,-0.9794226884841919
1782853733891913000,0.593912841796875,-0.6556458473205566,-0.07141311466693878,-0.9684722423553467
1782853733901898000,0.60389794921875,-0.7452409863471985,0.03113456442952156,-0.9519872665405273
1782853733911882000,0.613882080078125,-0.7903556823730469,0.1681249737739563,-0.9168550372123718
1782853733921867000,0.623866943359375,-0.803793728351593,0.2975873351097107,-0.8498421907424927
1782853733931851000,0.63385107421875,-0.7732893824577332,0.40381452441215515,-0.7610861659049988
1782853733941835800,0.643835693359375,-0.7172642350196838,0.5330747961997986,-0.6586841940879822
1782853733951819800,0.65381982421875,-0.6517282724380493,0.6616071462631226,-0.5549812316894531
1782853733961804800,0.6638046875,-0.5990719795227051,0.7328518033027649,-0.4929269552230835
1782853733971789800,0.673789794921875,-0.549960196018219,0.743514895439148,-0.4657096862792969
1782853733981773800,0.68377392578125,-0.528143584728241,0.737981379032135,-0.46362069249153137
1782853733991759000,0.693759033203125,-0.5352504253387451,0.7149282097816467,-0.489838570356369
1782853734001742800,0.703742919921875,-0.5624766945838928,0.6557649970054626,-0.5095832347869873
1782853734011728100,0.71372802734375,-0.594872236251831,0.5731753706932068,-0.5182848572731018
1782853734021712100,0.723712158203125,-0.629469633102417,0.5001325607299805,-0.49573269486427307
1782853734031697200,0.733697265625,-0.6475844979286194,0.4500652551651001,-0.4461546838283539
1782853734041681200,0.74368115234375,-0.6445330381393433,0.4214825928211212,-0.3860362470149994
1782853734051666000,0.753666015625,-0.612500011920929,0.4057757556438446,-0.3186134397983551
1782853734061651000,0.76365087890625,-0.5615074038505554,0.3967497646808624,-0.2557567059993744
1782853734071635000,0.773635009765625,-0.5039162635803223,0.3670221269130707,-0.202329620718956
1782853734081620000,0.783619873046875,-0.439767062664032,0.3290659785270691,-0.17033520340919495
1782853734091604000,0.79360400390625,-0.3595212399959564,0.2808257043361664,-0.15005888044834137
1782853734101589000,0.803589111328125,-0.27330324053764343,0.21760226786136627,-0.1404818892478943
1782853734111573000,0.813572998046875,-0.1970454603433609,0.14119163155555725,-0.13850808143615723
1782853734121558000,0.82355810546875,-0.13639996945858002,0.02748904377222061,-0.1452895551919937
1782853734131542000,0.8335419921875,-0.1122078001499176,-0.10726598650217056,-0.15766695141792297
1782853734141527000,0.843527099609375,-0.11768512427806854,-0.19577933847904205,-0.1661754846572876
1782853734151511000,0.853510986328125,-0.13416217267513275,-0.23521804809570312,-0.1575935333967209
1782853734161495800,0.863495849609375,-0.14987295866012573,-0.23400284349918365,-0.14771267771720886
1782853734171480800,0.873480712890625,-0.17049238085746765,-0.20299574732780457,-0.13100403547286987
1782853734181464800,0.88346484375,-0.1886972188949585,-0.16003364324569702,-0.11207136511802673
1782853734191449900,0.893449951171875,-0.20880809426307678,-0.1345251351594925,-0.11225750297307968
1782853734201433900,0.903433837890625,-0.22477667033672333,-0.11229359358549118,-0.13807524740695953
1782853734211419000,0.9134189453125,-0.22535324096679688,-0.0935468077659607,-0.17833586037158966
1782853734221403000,0.92340283203125,-0.2035944163799286,-0.08213489502668381,-0.19930106401443481
1782853734231388000,0.933387939453125,-0.1785401850938797,-0.073626309633255,-0.2014704793691635
1782853734241372000,0.943371826171875,-0.17273768782615662,-0.060288138687610626,-0.16607333719730377
1782853734251357000,0.95335693359375,-0.18924158811569214,-0.04136952757835388,-0.11109013855457306
1782853734261342000,0.963342041015625,-0.21367290616035461,-0.031506508588790894,-0.06037715822458267
1782853734271326000,0.973325927734375,-0.22246535122394562,-0.029154621064662933,0.004695171490311623
1782853734281311000,0.98331103515625,-0.2103343904018402,-0.021654892712831497,0.08858288079500198
1782853734291295000,0.993294921875,-0.17300137877464294,0.004551843740046024,0.18367120623588562
1782853734301280000,1.003280029296875,-0.13093675673007965,0.02213243395090103,0.30146655440330505
1782853734311264000,1.013263916015625,-0.08074865490198135,0.03771587088704109,0.41851556301116943
1782853734321249000,1.0232490234375,-0.029789870604872704,0.09003260731697083,0.513817548751831
1782853734331233000,1.03323291015625,0.004049327690154314,0.1570328027009964,0.558150053024292
1782853734341218000,1.043218017578125,0.01641571708023548,0.21482819318771362,0.5576006174087524
1782853734351203000,1.053203125,0.03146204724907875,0.28414487838745117,0.5022653341293335
1782853734361187000,1.06318701171875,0.0584755577147007,0.27930325269699097,0.3980150520801544
1782853734371171800,1.073171875,0.0990772545337677,0.22970695793628693,0.2686304748058319
1782853734381155800,1.08315576171875,0.14951859414577484,0.16050951182842255,0.15925820171833038
1782853734391142000,1.093141845703125,0.18855737149715424,0.1284080594778061,0.09210292994976044
1782853734401126000,1.1031259765625,0.20399971306324005,0.12939795851707458,0.08134268969297409
1782853734411111000,1.11311083984375,0.19355937838554382,0.12758459150791168,0.10408975929021835
1782853734421095000,1.123094970703125,0.15291687846183777,0.08665420114994049,0.13682107627391815
1782853734431080200,1.133080078125,0.09155408293008804,0.024995237588882446,0.16237978637218475
1782853734441064000,1.14306396484375,0.03845864161849022,-0.014416881836950779,0.1849018782377243
1782853734451049200,1.15304931640625,0.018701989203691483,-0.02810540981590748,0.21182526648044586
1782853734461034000,1.163033935546875,0.030017761513590813,-0.0038083260878920555,0.2449379563331604
1782853734471018000,1.17301806640625,0.07991504669189453,0.06518778204917908,0.28418081998825073
1782853734481003000,1.1830029296875,0.1595022976398468,0.15121987462043762,0.3131200671195984
1782853734490987000,1.192987060546875,0.24454396963119507,0.18315035104751587,0.30964842438697815
1782853734500972000,1.202971923828125,0.3311736583709717,0.15358580648899078,0.25785714387893677
1782853734510956000,1.2129560546875,0.4160930812358856,0.06208192929625511,0.17634126543998718
1782853734520941000,1.222941162109375,0.4870615303516388,-0.08849772065877914,0.085543192923069
1782853734530925000,1.232925048828125,0.5218365788459778,-0.2963157296180725,-0.014015734195709229
1782853734540910000,1.24291015625,0.5111865997314453,-0.5267467498779297,-0.11586033552885056
1782853734550894800,1.252894775390625,0.49162864685058594,-0.6735674142837524,-0.1901237815618515
1782853734560879000,1.262879150390625,0.49476370215415955,-0.7185248136520386,-0.18797726929187775
1782853734570863900,1.27286376953125,0.5034196972846985,-0.7001328468322754,-0.107838474214077
1782853734580847900,1.282847900390625,0.4862411916255951,-0.6657828688621521,0.03128373622894287
1782853734590833000,1.2928330078125,0.4661802053451538,-0.6280322670936584,0.20234544575214386
1782853734600817000,1.30281689453125,0.4556649923324585,-0.592497706413269,0.3734375536441803
1782853734610802000,1.312802001953125,0.4701285660266876,-0.5445206165313721,0.5223219394683838
1782853734620786000,1.322785888671875,0.4832531809806824,-0.46854034066200256,0.6307157874107361
1782853734630771000,1.33277099609375,0.4815841317176819,-0.37534570693969727,0.6836423277854919
1782853734640756000,1.342755859375,0.4655231535434723,-0.2466958463191986,0.6902086138725281
1782853734650740000,1.352739990234375,0.44462457299232483,-0.09223014116287231,0.6682057976722717
1782853734660725000,1.36272509765625,0.42077943682670593,0.056508202105760574,0.6189705729484558
1782853734670709000,1.372708984375,0.395179808139801,0.17668360471725464,0.556265652179718
1782853734680694000,1.382694091796875,0.37558186054229736,0.2848289906978607,0.4837518036365509
1782853734690677800,1.392677734375,0.3540627062320709,0.3625752925872803,0.4232427179813385
1782853734700663000,1.4026630859375,0.34135034680366516,0.3955463171005249,0.3725654184818268
1782853734710647000,1.41264697265625,0.3268086910247803,0.4078308939933777,0.3374008238315582
1782853734720632000,1.422632080078125,0.3225862681865692,0.40735819935798645,0.3076978027820587
1782853734730617000,1.4326171875,0.3215827941894531,0.37783557176589966,0.29689452052116394
1782853734740601000,1.44260107421875,0.3257357180118561,0.2973170280456543,0.2884877324104309
1782853734750586000,1.452586181640625,0.32570919394493103,0.1935792714357376,0.29756489396095276
1782853734760570000,1.462570068359375,0.3270338475704193,0.09766232222318649,0.3305497467517853
1782853734770555100,1.47255517578125,0.3232419490814209,0.013215809129178524,0.3629050552845001
1782853734780539100,1.4825390625,0.30045434832572937,-0.0748077929019928,0.3816843330860138
1782853734790524000,1.49252392578125,0.25567567348480225,-0.15094786882400513,0.36293458938598633
1782853734800508000,1.5025078125,0.2192010134458542,-0.20033594965934753,0.3116365373134613
1782853734810493000,1.512492919921875,0.2149810492992401,-0.2242060899734497,0.23857690393924713
1782853734820478000,1.52247802734375,0.23464342951774597,-0.21238937973976135,0.17758172750473022
1782853734830462000,1.5324619140625,0.27035847306251526,-0.17001628875732422,0.13708801567554474
1782853734840447000,1.542447021484375,0.2979144752025604,-0.12398647516965866,0.12277483940124512
1782853734850431000,1.552430908203125,0.30260080099105835,-0.08555387705564499,0.13652707636356354
1782853734860416000,1.562416015625,0.2586631774902344,-0.051419880241155624,0.1601642221212387
1782853734870400000,1.57239990234375,0.1719520390033722,-0.0017711548134684563,0.1759786307811737
1782853734880385000,1.582385009765625,0.04895101487636566,0.06533385068178177,0.1531904935836792
1782853734890369000,1.592369140625,-0.07754890620708466,0.12418784201145172,0.058343738317489624
1782853734900353800,1.602353759765625,-0.1840260922908783,0.15651248395442963,-0.1026853621006012
1782853734910338800,1.6123388671875,-0.23527106642723083,0.1940128654241562,-0.3075685501098633
1782853734920322800,1.62232275390625,-0.19675669074058533,0.24280144274234772,-0.5334088802337646
1782853734930308000,1.63230810546875,-0.07183612138032913,0.31985753774642944,-0.7580748796463013
1782853734940291800,1.642291748046875,0.12893559038639069,0.4323691725730896,-0.9716188907623291
1782853734950277000,1.652277099609375,0.3427630066871643,0.5399176478385925,-1.1614073514938354
1782853734960261000,1.66226123046875,0.5146125555038452,0.6654729247093201,-1.3200840950012207
1782853734970246100,1.67224609375,0.6168389916419983,0.7791308760643005,-1.4265202283859253
1782853734980230100,1.682230224609375,0.6653894782066345,0.8529028296470642,-1.4678630828857422
1782853734990215200,1.692215087890625,0.6460657715797424,0.8427221179008484,-1.4294253587722778
1782853735000200000,1.702199951171875,0.5466955304145813,0.764461100101471,-1.301601529121399
1782853735010184000,1.712183837890625,0.3877376317977905,0.6641938090324402,-1.1042165756225586
1782853735020169000,1.7221689453125,0.21380364894866943,0.546764075756073,-0.8812207579612732
1782853735030153000,1.732153076171875,0.07658743858337402,0.466255247592926,-0.6394510269165039
1782853735040138000,1.742137939453125,-0.00006446521729230881,0.42340096831321716,-0.37683695554733276
1782853735050122000,1.7521220703125,-0.023036660626530647,0.39817121624946594,-0.12215493619441986
1782853735060107000,1.76210693359375,-0.002543903887271881,0.39282143115997314,0.10340122878551483
1782853735070091000,1.772091064453125,0.04270403832197189,0.39685219526290894,0.2764763832092285
1782853735080076000,1.782075927734375,0.10111275315284729,0.36924293637275696,0.3727736473083496
1782853735090061000,1.79206103515625,0.14420317113399506,0.2985919117927551,0.3804561197757721
1782853735100045000,1.802045166015625,0.14709296822547913,0.1705807000398636,0.30500397086143494
1782853735110029800,1.81202978515625,0.1082654818892479,0.010002609342336655,0.1842598170042038
1782853735120014000,1.82201416015625,0.02681669220328331,-0.14422690868377686,0.05237501859664917
1782853735129998800,1.831998779296875,-0.08359874039888382,-0.2620357275009155,-0.07119940221309662
1782853735139982800,1.84198291015625,-0.21186695992946625,-0.31883668899536133,-0.16346141695976257
1782853735149968000,1.8519677734375,-0.33999916911125183,-0.3300175666809082,-0.2121557593345642
1782853735159952000,1.861951904296875,-0.447577565908432,-0.3040224611759186,-0.2072875052690506
1782853735169937000,1.87193701171875,-0.5229135155677795,-0.2322021871805191,-0.14246220886707306
1782853735179922200,1.881922119140625,-0.5605796575546265,-0.14391891658306122,-0.032378312200307846
1782853735189906000,1.891906005859375,-0.5625116229057312,-0.06738025695085526,0.09546687453985214
1782853735199891200,1.90189111328125,-0.5441848039627075,-0.013837669976055622,0.21204409003257751
1782853735209875200,1.911875244140625,-0.5157629251480103,0.03236643224954605,0.2958918809890747
1782853735219860000,1.92185986328125,-0.47397372126579285,0.07169279456138611,0.33530187606811523
1782853735229844000,1.931843994140625,-0.4245448708534241,0.11844098567962646,0.3226318061351776
1782853735239829000,1.9418291015625,-0.38546645641326904,0.17199768126010895,0.2736509442329407
1782853735249813000,1.95181298828125,-0.355204701423645,0.24260976910591125,0.20226378738880157
1782853735259798000,1.961798095703125,-0.3280721604824066,0.3059711754322052,0.11964346468448639
1782853735269783000,1.971782958984375,-0.30102431774139404,0.3251971900463104,0.05120744928717613
1782853735279767000,1.98176708984375,-0.2823350727558136,0.3224512040615082,0.0008723745122551918
1782853735289752000,1.991751953125,-0.28663522005081177,0.2941141724586487,-0.012541248463094234
1782853735299736000,2.001736083984375,-0.2989368736743927,0.25988349318504333,0.015147637575864792
1782853735309721000,2.01172119140625,-0.31006041169166565,0.20026372373104095,0.05114607885479927
1782853735319705000,2.021705078125,-0.31265485286712646,0.1076272651553154,0.09335877746343613
1782853735329689900,2.03168994140625,-0.3006945848464966,0.0004126662388443947,0.13188767433166504
1782853735339674000,2.041674072265625,-0.2840588688850403,-0.12194786965847015,0.18435406684875488
1782853735349659000,2.051658935546875,-0.28055766224861145,-0.2528260350227356,0.24615179002285004
1782853735359644000,2.061643798828125,-0.28897377848625183,-0.3483498990535736,0.29799821972846985
1782853735369628000,2.0716279296875,-0.2927120327949524,-0.39765599370002747,0.33277446031570435
1782853735379613000,2.081613037109375,-0.2689060568809509,-0.386519193649292,0.3411783277988434
1782853735389596000,2.091595947265625,-0.20818117260932922,-0.3324851393699646,0.32557132840156555
1782853735399581000,2.101580810546875,-0.1291753053665161,-0.2709144651889801,0.2975330352783203
1782853735409565000,2.11156494140625,-0.053922154009342194,-0.2087540626525879,0.27217331528663635
1782853735419550200,2.12155029296875,0.01865990273654461,-0.10874038189649582,0.2601299583911896
1782853735429534000,2.131533935546875,0.08604484796524048,0.01072248350828886,0.263754278421402
1782853735439519200,2.141519287109375,0.13401928544044495,0.11692561209201813,0.27338534593582153
1782853735449504300,2.151504150390625,0.16535404324531555,0.1959460973739624,0.2818715274333954
1782853735459488300,2.16148828125,0.1611478477716446,0.19728167355060577,0.2787388563156128
1782853735469473000,2.17147314453125,0.13464008271694183,0.12775050103664398,0.25814709067344666
1782853735479457000,2.18145703125,0.10574984550476074,0.040162593126297,0.22562643885612488
1782853735489442000,2.191442138671875,0.10422518849372864,-0.04676872119307518,0.18234038352966309
1782853735499426000,2.201426025390625,0.1380545198917389,-0.11132081598043442,0.14485372602939606
1782853735509411000,2.2114111328125,0.1829945594072342,-0.09463541209697723,0.1220584288239479
1782853735519395000,2.22139501953125,0.2251766324043274,-0.01554698497056961,0.13203144073486328
1782853735529380000,2.231380126953125,0.24344055354595184,0.08122321218252182,0.1526775360107422
1782853735539364000,2.241364013671875,0.2183554470539093,0.1532052606344223,0.14648647606372833
1782853735549349000,2.25134912109375,0.16647550463676453,0.16016070544719696,0.09401986002922058
1782853735559334100,2.261334228515625,0.12518292665481567,0.1261042058467865,0.0020870082080364227
1782853735569318100,2.271318115234375,0.10415885597467422,0.07759574055671692,-0.09775622189044952
1782853735579303000,2.281302978515625,0.11849518120288849,0.06736680120229721,-0.17197798192501068
1782853735589287200,2.291287109375,0.171382337808609,0.09606805443763733,-0.18784207105636597
1782853735599272000,2.30127197265625,0.24137580394744873,0.15048310160636902,-0.10590805113315582
1782853735609256000,2.311255859375,0.30127987265586853,0.19413241744041443,0.04950455203652382
1782853735619241000,2.321240966796875,0.33760032057762146,0.20012372732162476,0.21351133286952972
1782853735629225000,2.331224853515625,0.35389602184295654,0.12613943219184875,0.328919917345047
1782853735639210000,2.3412099609375,0.35995417833328247,-0.028457602486014366,0.36176708340644836
1782853735649195000,2.351195068359375,0.3458353579044342,-0.20723916590213776,0.3096259832382202
1782853735659179000,2.361178955078125,0.3100520670413971,-0.3706507384777069,0.18536289036273956
1782853735669164300,2.371164306640625,0.2785831391811371,-0.5134492516517639,0.03486456722021103
1782853735679148000,2.38114794921875,0.25433826446533203,-0.6084479093551636,-0.1032261922955513
1782853735689133000,2.391133056640625,0.23110482096672058,-0.6412766575813293,-0.19353841245174408
1782853735699117000,2.401116943359375,0.19970083236694336,-0.6208613514900208,-0.2159731388092041
1782853735709102000,2.41110205078125,0.17143507301807404,-0.5783489346504211,-0.16735443472862244
1782853735719086000,2.421086181640625,0.16233238577842712,-0.5281928181648254,-0.0561903677880764
1782853735729071000,2.431071044921875,0.15925133228302002,-0.4565339982509613,0.07911708950996399
1782853735739056000,2.44105615234375,0.14566947519779205,-0.35832780599594116,0.19373689591884613
1782853735749040000,2.4510400390625,0.12159429490566254,-0.2285430133342743,0.25088441371917725
1782853735759025200,2.461025146484375,0.08959002792835236,-0.09672584384679794,0.2404608130455017
1782853735769009200,2.471009033203125,0.06821068376302719,0.03831295669078827,0.19140611588954926
1782853735778994200,2.480994140625,0.0458446629345417,0.14337119460105896,0.12762020528316498
1782853735788978200,2.490978271484375,0.01948494464159012,0.20404857397079468,0.07528670877218246
1782853735798963000,2.500962890625,-0.008741367608308792,0.23435160517692566,0.06511875987052917
1782853735808947200,2.510947265625,-0.025808531790971756,0.2508114278316498,0.09658902883529663
1782853735818932000,2.520931884765625,-0.0217333622276783,0.24461346864700317,0.17018069326877594
1782853735828916000,2.530916015625,0.0003267456777393818,0.2061886489391327,0.2651521861553192
1782853735838901000,2.54090087890625,0.02983989752829075,0.15266923606395721,0.37176570296287537
1782853735848886000,2.550885986328125,0.07014067471027374,0.10321182012557983,0.46918463706970215
1782853735858870000,2.5608701171875,0.11332276463508606,0.06431209295988083,0.5519232153892517
1782853735868855000,2.57085498046875,0.14994557201862335,0.024939775466918945,0.6014901399612427
1782853735878839000,2.580839111328125,0.17494413256645203,-0.03423459827899933,0.6112945675849915
1782853735888824000,2.590823974609375,0.16698013246059418,-0.0734146386384964,0.578411340713501
1782853735898808000,2.60080810546875,0.14521066844463348,-0.10482662916183472,0.5095484256744385
1782853735908793000,2.61079296875,0.12694352865219116,-0.13556592166423798,0.4192641079425812
1782853735918777000,2.620777099609375,0.1160900741815567,-0.14766547083854675,0.3149033188819885
1782853735928761900,2.630761962890625,0.11716222018003464,-0.1539131999015808,0.20485971868038177
1782853735938747100,2.6407470703125,0.11737367510795593,-0.15787465870380402,0.10369821637868881
1782853735948731100,2.650731201171875,0.11731618642807007,-0.141451895236969,0.023180510848760605
1782853735958716200,2.660716064453125,0.11699581146240234,-0.07702043652534485,-0.022601354867219925
1782853735968700200,2.6707001953125,0.10659987479448318,-0.022480713203549385,-0.03528374433517456
1782853735978685200,2.680685302734375,0.07821350544691086,0.06786143034696579,-0.04303247854113579
1782853735988669200,2.690669189453125,0.03600320965051651,0.1788869947195053,-0.08975143730640411
1782853735998654200,2.700654296875,-0.002436322160065174,0.2439858317375183,-0.19260884821414948
1782853736008638200,2.71063818359375,-0.017156891524791718,0.2654553949832916,-0.3101975619792938
1782853736018623200,2.720623291015625,-0.03574468940496445,0.2507699429988861,-0.4090929925441742
1782853736028607200,2.730607177734375,-0.04825416952371597,0.19002285599708557,-0.47785866260528564
1782853736038592000,2.740592041015625,-0.06725582480430603,0.045886196196079254,-0.5265334844589233
1782853736048577000,2.750576904296875,-0.09543708711862564,-0.12813730537891388,-0.5620005130767822
1782853736058561000,2.76056103515625,-0.12099757790565491,-0.27530437707901,-0.5913626551628113
1782853736068546000,2.770546142578125,-0.12059174478054047,-0.36641502380371094,-0.6245091557502747
1782853736078530000,2.780530029296875,-0.09632688760757446,-0.35608407855033875,-0.6410199403762817
1782853736088515000,2.79051513671875,-0.0901518166065216,-0.2816193997859955,-0.635162353515625
1782853736098499000,2.8004990234375,-0.12699931859970093,-0.18169282376766205,-0.6360110640525818
1782853736108484000,2.810484130859375,-0.21980991959571838,-0.08501304686069489,-0.6425940990447998
1782853736118468000,2.820468017578125,-0.3219522535800934,0.026984861120581627,-0.6445578932762146
1782853736128453000,2.830453125,-0.3864401578903198,0.15318597853183746,-0.61692875623703
1782853736138438000,2.84043798828125,-0.3999447822570801,0.2740655243396759,-0.5488886833190918
1782853736148422000,2.850421875,-0.36163970828056335,0.37324950098991394,-0.4345152676105499
1782853736158407000,2.860406982421875,-0.2914470434188843,0.4149087965488434,-0.27625396847724915
1782853736168391000,2.870390869140625,-0.20988810062408447,0.3983878493309021,-0.09119904041290283
1782853736178376000,2.8803759765625,-0.1445956528186798,0.358870267868042,0.0929122045636177
1782853736188360000,2.89035986328125,-0.083055280148983,0.3155818283557892,0.24236109852790833
1782853736198345200,2.90034521484375,-0.03835811838507652,0.24849946796894073,0.3367699086666107
1782853736208329000,2.910328857421875,-0.043663643300533295,0.14658209681510925,0.35711419582366943
1782853736218314200,2.920314208984375,-0.11431517452001572,0.008781088516116142,0.31439095735549927
1782853736228298200,2.93029833984375,-0.22725985944271088,-0.12645412981510162,0.2302548885345459
1782853736238283300,2.940283203125,-0.35328757762908936,-0.22308532893657684,0.140886127948761
1782853736248268000,2.95026806640625,-0.46583086252212524,-0.25357940793037415,0.07958058267831802
1782853736258252000,2.960251953125,-0.5678991675376892,-0.2252386063337326,0.04210352152585983
1782853736268237000,2.970237060546875,-0.6427944302558899,-0.17764247953891754,0.03694215416908264
1782853736278221000,2.980220947265625,-0.6768922209739685,-0.12496355921030045,0.062001701444387436
1782853736288206000,2.9902060546875,-0.6710307002067566,-0.06318062543869019,0.1089007705450058
1782853736298190000,3.000190185546875,-0.6536356806755066,-0.001721525564789772,0.16231685876846313
1782853736308175000,3.010175048828125,-0.6282981038093567,0.0629379078745842,0.191375270485878
1782853736318159000,3.0201591796875,-0.6066849827766418,0.1296767294406891,0.18611925840377808
1782853736328144100,3.03014404296875,-0.5734719038009644,0.19375981390476227,0.1362285315990448
1782853736338128100,3.040128173828125,-0.5264948010444641,0.26786547899246216,0.04909442737698555
1782853736348113200,3.050113037109375,-0.46572279930114746,0.33152639865875244,-0.05789472162723541
1782853736358098000,3.060097900390625,-0.4003922641277313,0.3687025308609009,-0.15607908368110657
1782853736368082000,3.07008203125,-0.3450791835784912,0.38912349939346313,-0.20377646386623383
1782853736378067000,3.08006689453125,-0.30550646781921387,0.40114980936050415,-0.19485992193222046
1782853736388051000,3.090051025390625,-0.28314849734306335,0.37732994556427,-0.14751245081424713
1782853736398040300,3.100040283203125,-0.26442593336105347,0.31347906589508057,-0.07934750616550446
1782853736408024300,3.1100244140625,-0.23340721428394318,0.21386007964611053,-0.012659497559070587
1782853736418009300,3.12000927734375,-0.17995570600032806,0.06810261309146881,0.04069187492132187
1782853736427993300,3.129993408203125,-0.12795379757881165,-0.11907529830932617,0.08113718032836914
1782853736437978400,3.139978271484375,-0.09759030491113663,-0.3167063593864441,0.10701990872621536
1782853736447962400,3.14996240234375,-0.09495029598474503,-0.46912047266960144,0.1224762499332428
1782853736457947100,3.159947021484375,-0.11572615057229996,-0.5728967189788818,0.12031003832817078
1782853736467932200,3.16993212890625,-0.12712259590625763,-0.6176773905754089,0.10384322702884674
1782853736477916200,3.179916259765625,-0.12923820316791534,-0.5779616832733154,0.07724970579147339
1782853736487901200,3.189901123046875,-0.11665716022253036,-0.5129579901695251,0.035613663494586945
1782853736497885200,3.19988525390625,-0.10670945048332214,-0.4513135254383087,0.011715520173311234
1782853736507870200,3.2098701171875,-0.11765323579311371,-0.3638644218444824,0.0031410183291882277
1782853736517854200,3.219854248046875,-0.15086445212364197,-0.2482755184173584,0.001619021873921156
1782853736527839200,3.229839111328125,-0.17950250208377838,-0.12937726080417633,0.006700973026454449
1782853736537823200,3.2398232421875,-0.18823687732219696,0.006236233748495579,0.007028807885944843
1782853736547808300,3.249808349609375,-0.16626711189746857,0.12970174849033356,-0.016018465161323547
1782853736557792300,3.259792236328125,-0.1265535205602646,0.20245878398418427,-0.0458860844373703
1782853736567777300,3.26977734375,-0.06899458169937134,0.24863693118095398,-0.08217225223779678
1782853736577762000,3.279761962890625,0.0035938676446676254,0.2690870761871338,-0.10721529275178909
1782853736587746000,3.28974609375,0.08251767605543137,0.27090001106262207,-0.11382368206977844
1782853736597731000,3.29973095703125,0.14230456948280334,0.25912004709243774,-0.1019371971487999
1782853736607715000,3.309715087890625,0.1824282854795456,0.23244905471801758,-0.08410480618476868
1782853736617700000,3.3197001953125,0.19659949839115143,0.17381982505321503,-0.07634515315294266
1782853736627684000,3.32968408203125,0.1833348274230957,0.14436496794223785,-0.0813557580113411
1782853736637669000,3.339669189453125,0.1551724374294281,0.18299278616905212,-0.08550016582012177
1782853736647653000,3.349653076171875,0.11276799440383911,0.24181996285915375,-0.11750446259975433
1782853736657638400,3.359638427734375,0.048129353672266006,0.2949814796447754,-0.18277348577976227
1782853736667622100,3.3696220703125,-0.018297072499990463,0.31099629402160645,-0.28031033277511597
1782853736677607400,3.379607421875,-0.05987994000315666,0.3109331727027893,-0.3830084800720215
1782853736687591400,3.38959130859375,-0.07706639170646667,0.3262243866920471,-0.46266964077949524
1782853736697576200,3.399576171875,-0.06996268033981323,0.3583871126174927,-0.487973153591156
1782853736707561200,3.409561279296875,-0.04687253758311272,0.40120115876197815,-0.44382965564727783
1782853736717545200,3.419545166015625,-0.014863470569252968,0.4301329255104065,-0.33662089705467224
1782853736727530200,3.4295302734375,0.015835316851735115,0.4288586676120758,-0.210470512509346
1782853736737514200,3.43951416015625,0.03277728334069252,0.4069043695926666,-0.09844783693552017
1782853736747499300,3.449499267578125,0.05864671990275383,0.3300621211528778,-0.03734475374221802
1782853736757483300,3.459483154296875,0.09796775877475739,0.21845461428165436,-0.03675353154540062
1782853736767468300,3.46946826171875,0.1492282599210739,0.0763886496424675,-0.09038395434617996
1782853736777452300,3.479452392578125,0.1930260807275772,-0.09813281893730164,-0.19700494408607483
1782853736787437300,3.489437255859375,0.21795430779457092,-0.2737172544002533,-0.30976182222366333
1782853736797421300,3.49942138671875,0.22992229461669922,-0.425454318523407,-0.4183405041694641
1782853736807406000,3.509406005859375,0.25096550583839417,-0.5595276355743408,-0.5004719495773315
1782853736817391000,3.51939111328125,0.2824086546897888,-0.6504721641540527,-0.5325210094451904
1782853736827375000,3.529375,0.3180830478668213,-0.6968077421188354,-0.4874897003173828
1782853736837360000,3.539360107421875,0.3588419556617737,-0.7164728045463562,-0.3647363483905792
1782853736847344000,3.54934423828125,0.3881862461566925,-0.7177542448043823,-0.185856893658638
1782853736857329200,3.5593291015625,0.4047290086746216,-0.682209312915802,0.015008574351668358
1782853736867313200,3.569313232421875,0.4006498456001282,-0.5790696144104004,0.19094838201999664
1782853736877298200,3.579298095703125,0.39264729619026184,-0.43620753288269043,0.29752063751220703
1782853736887282200,3.5892822265625,0.3853590786457062,-0.2790486216545105,0.3341110944747925
1782853736897267200,3.59926708984375,0.40107837319374084,-0.1379610151052475,0.3093324899673462
1782853736907251200,3.609251220703125,0.42865246534347534,-0.02787080407142639,0.2731897532939911
1782853736917236000,3.619236083984375,0.45383426547050476,0.0563679113984108,0.24996007978916168
1782853736927220200,3.62922021484375,0.45406436920166016,0.08363643288612366,0.26500436663627625
1782853736937205200,3.639205322265625,0.4379628896713257,0.06528858840465546,0.30693957209587097
1782853736947190300,3.649190185546875,0.4128628373146057,0.02107829600572586,0.36254218220710754
1782853736957174300,3.65917431640625,0.386054128408432,-0.04814045503735542,0.41920173168182373
1782853736967159300,3.6691591796875,0.3593333065509796,-0.11632376909255981,0.46746912598609924
1782853736977143300,3.679143310546875,0.33508414030075073,-0.19009201228618622,0.5036050081253052
1782853736987128300,3.68912841796875,0.3150864839553833,-0.2505992352962494,0.539400577545166
1782853736997112300,3.6991123046875,0.30891168117523193,-0.30057159066200256,0.586158812046051
1782853737007097300,3.709097412109375,0.3008135259151459,-0.3293592631816864,0.6509649157524109
1782853737017081300,3.719081298828125,0.2863762676715851,-0.35162168741226196,0.7118532657623291
1782853737027066000,3.729066162109375,0.2721683084964752,-0.3588479161262512,0.7720649838447571
1782853737037050400,3.73905029296875,0.2731664478778839,-0.32783594727516174,0.7967194318771362
1782853737047035100,3.74903515625,0.2907630205154419,-0.2599666118621826,0.7899829745292664
1782853737057020200,3.759020263671875,0.30903950333595276,-0.1833629161119461,0.7377424240112305
1782853737067004200,3.769004150390625,0.3170654773712158,-0.10056775063276291,0.6575733423233032
1782853737076989200,3.7789892578125,0.30652254819869995,-0.02227933146059513,0.557017982006073
1782853737086973200,3.78897314453125,0.2956498861312866,0.03658419847488403,0.4612732231616974
1782853737096958200,3.798958251953125,0.29508158564567566,0.06359344720840454,0.39705535769462585
1782853737106942200,3.808942138671875,0.2886795997619629,0.07593964040279388,0.3804872930049896
1782853737116927200,3.81892724609375,0.26675671339035034,0.053735796362161636,0.4019390642642975
1782853737126911200,3.8289111328125,0.2345525026321411,-0.006496021524071693,0.4368675649166107
1782853737136896300,3.838896240234375,0.18447628617286682,-0.06365890800952911,0.45840853452682495
1782853737146880300,3.84888037109375,0.11238128691911697,-0.1023261621594429,0.4237639009952545
1782853737156865000,3.858864990234375,0.029152706265449524,-0.1297236979007721,0.31160005927085876
1782853737166849000,3.86884912109375,-0.05634808540344238,-0.15247702598571777,0.13905709981918335
1782853737176834000,3.878833984375,-0.12703609466552734,-0.13906720280647278,-0.073654904961586
1782853737186819300,3.8888193359375,-0.18063141405582428,-0.06810393929481506,-0.26397407054901123
1782853737196803000,3.898802978515625,-0.22149468958377838,0.03885314241051674,-0.4109552800655365
1782853737206788400,3.908788330078125,-0.2488671839237213,0.1843584179878235,-0.5228204727172852
1782853737216772000,3.918772216796875,-0.26175183057785034,0.3288455903530121,-0.5904977917671204
1782853737226757400,3.92875732421875,-0.29496467113494873,0.4109979569911957,-0.6636682152748108
1782853737236741400,3.938741455078125,-0.3612872362136841,0.4166763424873352,-0.7554282546043396
1782853737246726400,3.948726318359375,-0.43519341945648193,0.41240859031677246,-0.8576310873031616
1782853737256710400,3.95871044921875,-0.4784191846847534,0.42204365134239197,-0.9466602802276611
1782853737266695200,3.968695068359375,-0.4839684069156647,0.441803902387619,-0.9988887906074524
1782853737276679200,3.97867919921875,-0.4573812782764435,0.4552893340587616,-0.9974176287651062
1782853737286661000,3.9886611328125,-0.40554577112197876,0.44399887323379517,-0.9592782258987427
1782853737296645000,3.99864501953125,-0.34101948142051697,0.42833027243614197,-0.8936660885810852
1782853737306630100,4.008630126953125,-0.26069509983062744,0.4003516435623169,-0.8149219751358032
1782853737316614100,4.0186142578125,-0.17252157628536224,0.31210142374038696,-0.7289071679115295
1782853737326599200,4.02859912109375,-0.10373688489198685,0.1301310956478119,-0.6663208603858948
1782853737336583200,4.038583251953125,-0.07510177791118622,-0.11871813982725143,-0.6395244002342224
1782853737346568200,4.048568115234375,-0.08109098672866821,-0.4191647171974182,-0.6340425610542297
1782853737356552200,4.05855224609375,-0.09388454258441925,-0.7239169478416443,-0.6220018863677979
1782853737366537200,4.068537109375,-0.10494305193424225,-1.013376235961914,-0.5700064897537231
1782853737376522200,4.078522216796875,-0.10226231813430786,-1.251832127571106,-0.4553726017475128
1782853737386506000,4.088506103515625,-0.06903564184904099,-1.420381784439087,-0.293314129114151
1782853737396488000,4.098488037109375,-0.028115643188357353,-1.4799518585205078,-0.09358957409858704
1782853737406472000,4.108471923828125,-0.014291677623987198,-1.4289089441299438,0.13168103992938995
1782853737416457000,4.11845703125,-0.04671726003289223,-1.2465487718582153,0.3347236216068268
1782853737426441000,4.12844091796875,-0.09819689393043518,-0.9974238276481628,0.516308605670929
1782853737436426000,4.138426025390625,-0.16163738071918488,-0.7119777202606201,0.6521072387695312
1782853737446410000,4.148409912109375,-0.22511978447437286,-0.4515944719314575,0.7368177771568298
1782853737456395000,4.15839501953125,-0.27023744583129883,-0.3217528462409973,0.738294243812561
1782853737466379000,4.16837890625,-0.27024704217910767,-0.3060685396194458,0.6362594366073608
1782853737476363800,4.17836376953125,-0.23761026561260223,-0.24493782222270966,0.48635703325271606
1782853737486348000,4.18834814453125,-0.21970665454864502,-0.13479968905448914,0.32949912548065186
1782853737496332800,4.198332763671875,-0.22545456886291504,0.01055777445435524,0.1858740597963333
1782853737506317800,4.20831787109375,-0.24633532762527466,0.22098691761493683,0.07400450855493546
1782853737516301800,4.2183017578125,-0.2699589133262634,0.43668368458747864,-0.016940759494900703
1782853737526286800,4.228286865234375,-0.28675463795661926,0.5870860815048218,-0.09076974540948868
1782853737536270800,4.238270751953125,-0.3014534115791321,0.6357319355010986,-0.1667121797800064
1782853737546256100,4.248256103515625,-0.32488763332366943,0.5733063817024231,-0.2397320717573166
1782853737556240000,4.258239990234375,-0.3568921685218811,0.42062655091285706,-0.2958192229270935
1782853737566225200,4.26822509765625,-0.3795069754123688,0.2372995913028717,-0.3090132474899292
1782853737576209000,4.278208984375,-0.39056894183158875,0.05476917326450348,-0.27414289116859436
1782853737586194000,4.28819384765625,-0.39715707302093506,-0.09136486053466797,-0.19805076718330383
1782853737596178200,4.29817822265625,-0.39511922001838684,-0.1383056640625,-0.09197481721639633
1782853737606163000,4.308162841796875,-0.3823695778846741,-0.08773218840360641,0.024204961955547333
1782853737616147000,4.31814697265625,-0.3669126033782959,0.01239361148327589,0.1424485146999359
1782853737626132000,4.328132080078125,-0.33667081594467163,0.11262727528810501,0.22971098124980927
1782853737636116000,4.338115966796875,-0.30405429005622864,0.17139261960983276,0.2667519450187683
1782853737646101000,4.34810107421875,-0.2717277407646179,0.2337348610162735,0.25490546226501465
1782853737656086000,4.3580859375,-0.24622319638729095,0.31957706809043884,0.2260732799768448
1782853737666070000,4.368070068359375,-0.2220936417579651,0.40367624163627625,0.20603406429290771
1782853737676055000,4.378054931640625,-0.1840975135564804,0.43969377875328064,0.21746550500392914
1782853737686039000,4.3880390625,-0.16895079612731934,0.42375263571739197,0.24784338474273682
1782853737696024000,4.398024169921875,-0.19583937525749207,0.37853866815567017,0.28261545300483704
1782853737706008000,4.408008056640625,-0.2463187873363495,0.321541965007782,0.2946103513240814
1782853737715992800,4.417992919921875,-0.29399579763412476,0.2636948823928833,0.27701738476753235
1782853737725976800,4.427976806640625,-0.31971341371536255,0.21756775677204132,0.20662085711956024
1782853737735961900,4.4379619140625,-0.31919118762016296,0.17063114047050476,0.10907378792762756
1782853737745945900,4.44794580078125,-0.30136504769325256,0.12512916326522827,0.0045401910319924355
1782853737755931000,4.457930908203125,-0.2557631731033325,0.10020729899406433,-0.07042573392391205
1782853737765915000,4.467914794921875,-0.19840079545974731,0.16470825672149658,-0.07247556746006012
1782853737775900000,4.47789990234375,-0.14894139766693115,0.29730716347694397,-0.024992559105157852
1782853737785884000,4.4878837890625,-0.13120074570178986,0.38303670287132263,0.02123245969414711
1782853737795869000,4.497868896484375,-0.13171474635601044,0.39760932326316833,0.03218955546617508
1782853737805854000,4.50785400390625,-0.1429665982723236,0.3724325895309448,-0.008075043559074402
1782853737815838000,4.517837890625,-0.1378975361585617,0.32617735862731934,-0.08696416765451431
1782853737825822700,4.52782275390625,-0.11153782904148102,0.2559173107147217,-0.18351414799690247
1782853737835806700,4.537806640625,-0.05696567893028259,0.15538716316223145,-0.26282578706741333
1782853737845792000,4.5477919921875,0.011273831129074097,0.04463615268468857,-0.29592299461364746
1782853737855775700,4.557775634765625,0.07083969563245773,-0.04918769374489784,-0.28718653321266174
1782853737865761000,4.567760986328125,0.12312287837266922,-0.11475152522325516,-0.2581804692745209
1782853737875745000,4.5777451171875,0.1733972430229187,-0.22500760853290558,-0.23561127483844757
1782853737885730000,4.58772998046875,0.21419501304626465,-0.3739358186721802,-0.23327568173408508
1782853737895718000,4.5977177734375,0.24886591732501984,-0.5072556138038635,-0.24212035536766052
1782853737905702000,4.607701904296875,0.27834683656692505,-0.5809239745140076,-0.2479885071516037
1782853737915687000,4.61768701171875,0.3119487464427948,-0.6090637445449829,-0.24795521795749664
1782853737925671000,4.6276708984375,0.3522202670574188,-0.6785418391227722,-0.2413083016872406
1782853737935656000,4.637656005859375,0.39997634291648865,-0.7662551999092102,-0.2067902684211731
1782853737945640000,4.647639892578125,0.44342178106307983,-0.8337727785110474,-0.14019475877285004
1782853737955625000,4.657625,0.4560467600822449,-0.8670196533203125,-0.05144412815570831
1782853737965609000,4.66760888671875,0.41855454444885254,-0.8674619197845459,0.02240562252700329
1782853737975594000,4.677593994140625,0.34343022108078003,-0.7953797578811646,0.05218695476651192
1782853737985578000,4.687577880859375,0.27713826298713684,-0.6222703456878662,0.042135342955589294
1782853737995563000,4.69756298828125,0.24819929897785187,-0.4166141450405121,-0.004330690950155258
1782853738005547000,4.707547119140625,0.24792632460594177,-0.2073005884885788,-0.060813676565885544
1782853738015532000,4.717531982421875,0.26654714345932007,0.02077251672744751,-0.12066130340099335
1782853738025517000,4.72751708984375,0.28936296701431274,0.22951488196849823,-0.1604125201702118
1782853738035501000,4.7375009765625,0.32155340909957886,0.3828658163547516,-0.17986877262592316
1782853738045486000,4.747486083984375,0.3472345471382141,0.4459449052810669,-0.16776883602142334
1782853738055470000,4.757469970703125,0.3660447299480438,0.4820168912410736,-0.13408704102039337
1782853738065454800,4.767454833984375,0.3636726140975952,0.4952318072319031,-0.09336072206497192
1782853738075439000,4.777439208984375,0.3611535429954529,0.471966952085495,-0.06244355067610741
1782853738085423900,4.787423828125,0.3556450605392456,0.42749178409576416,-0.054190926253795624
1782853738095407900,4.797407958984375,0.3509240746498108,0.3690505921840668,-0.05301034450531006
1782853738105393000,4.807392822265625,0.33581116795539856,0.2906945049762726,-0.05413871631026268
1782853738115377000,4.817376953125,0.32334649562835693,0.2000756561756134,-0.041593894362449646
1782853738125362000,4.82736181640625,0.3136150538921356,0.11023783683776855,-0.012152031064033508
1782853738135346000,4.837345947265625,0.32837456464767456,0.047483112663030624,0.03904350847005844
1782853738145331000,4.8473310546875,0.3380548655986786,0.04115601256489754,0.10398216545581818
1782853738155315000,4.85731494140625,0.33094877004623413,0.08673681318759918,0.15816177427768707
1782853738165300000,4.867300048828125,0.3185757100582123,0.13738884031772614,0.18045169115066528
1782853738175284700,4.87728466796875,0.3166358768939972,0.14753122627735138,0.1777549833059311
1782853738185269000,4.88726904296875,0.31484678387641907,0.13035880029201508,0.15511839091777802
1782853738195253800,4.897253662109375,0.30640748143196106,0.08037126064300537,0.11530705541372299
1782853738205237800,4.90723779296875,0.2750586271286011,-0.030853271484375,0.06945854425430298
1782853738215222800,4.917222900390625,0.23590828478336334,-0.16759274899959564,0.027546515688300133
1782853738225206800,4.927206787109375,0.18600596487522125,-0.2718566358089447,0.015901926904916763
1782853738235192000,4.937192138671875,0.13993407785892487,-0.31244775652885437,0.02846619114279747
1782853738245175800,4.94717578125,0.1139189824461937,-0.3167092800140381,0.041200947016477585
1782853738255161000,4.9571611328125,0.11157780140638351,-0.27238228917121887,0.04563324525952339
1782853738265145000,4.96714501953125,0.1206679716706276,-0.15991558134555817,0.03720645233988762
1782853738275130000,4.977130126953125,0.14939628541469574,-0.038947612047195435,0.0181315615773201
1782853738285114000,4.987114013671875,0.19988903403282166,0.016535243019461632,-0.013612894341349602
1782853738295099100,4.99709912109375,0.2434929609298706,-0.02981814183294773,-0.050992488861083984
1782853738305084000,5.007083984375,0.2524646520614624,-0.1485431045293808,-0.08608172833919525
1782853738315068000,5.01706787109375,0.22326147556304932,-0.2885763645172119,-0.1377614438533783
1782853738325053000,5.027052978515625,0.1669854074716568,-0.3664500415325165,-0.20041882991790771
1782853738335037000,5.037036865234375,0.09281717985868454,-0.36146220564842224,-0.2786465287208557
1782853738345022000,5.04702197265625,-0.010569671168923378,-0.29171276092529297,-0.3884457051753998
1782853738355006000,5.057005859375,-0.14004777371883392,-0.1828792244195938,-0.5119202733039856
1782853738364991000,5.066990966796875,-0.2765611410140991,-0.02439807914197445,-0.6439294815063477
1782853738374975000,5.07697509765625,-0.3846687078475952,0.09895208477973938,-0.741041898727417
1782853738384960000,5.0869599609375,-0.46528443694114685,0.15942244231700897,-0.7853013277053833
1782853738394943500,5.096943603515625,-0.5133539438247681,0.15299516916275024,-0.7579818367958069
1782853738404928800,5.1069287109375,-0.5371213555335999,0.12937331199645996,-0.6608287692070007
1782853738414912500,5.11691259765625,-0.53151535987854,0.11492246389389038,-0.5118984580039978
1782853738424897800,5.126897705078125,-0.5086148381233215,0.08776061981916428,-0.3638351857662201
1782853738434882600,5.136882568359375,-0.49063292145729065,0.05288279801607132,-0.2481541484594345
1782853738444866600,5.146866455078125,-0.48828431963920593,0.013437795452773571,-0.19413481652736664
1782853738454851600,5.1568515625,-0.489472895860672,0.00289833452552557,-0.19091399013996124
1782853738464835600,5.166835693359375,-0.4994426965713501,0.046206552535295486,-0.2287493646144867
1782853738474820600,5.176820556640625,-0.5290724635124207,0.11887171119451523,-0.28202348947525024
1782853738484804600,5.1868046875,-0.5694974064826965,0.206201434135437,-0.32709628343582153
1782853738494789600,5.19678955078125,-0.6034811735153198,0.290405809879303,-0.3427426218986511
1782853738504773600,5.206773681640625,-0.6233494281768799,0.3404844403266907,-0.3284367322921753
1782853738514758700,5.216758544921875,-0.6270126104354858,0.37430819869041443,-0.27960634231567383
1782853738524742700,5.22674267578125,-0.6097843647003174,0.3997577130794525,-0.1991545855998993
1782853738534727700,5.236727783203125,-0.568873941898346,0.408943235874176,-0.10239768773317337
1782853738544711700,5.246711669921875,-0.5219836831092834,0.4175952076911926,-0.002078318502753973
1782853738554696400,5.256696533203125,-0.4829627573490143,0.43814870715141296,0.09706850349903107
1782853738564681500,5.266681396484375,-0.45019230246543884,0.4633042812347412,0.1760030835866928
1782853738574665500,5.27666552734375,-0.4238720238208771,0.5092036128044128,0.2314615547657013
1782853738584650500,5.286650390625,-0.4077441692352295,0.5181751251220703,0.2581250071525574
1782853738594634500,5.296634521484375,-0.38201138377189636,0.4781917929649353,0.25899267196655273
1782853738604619500,5.30661962890625,-0.35035037994384766,0.41552260518074036,0.24901239573955536
1782853738614603500,5.316603515625,-0.32326072454452515,0.3435693085193634,0.24678653478622437
1782853738624588500,5.326588623046875,-0.2962568402290344,0.25908902287483215,0.2453792542219162
1782853738634572500,5.336572509765625,-0.2776016592979431,0.1759837567806244,0.2588215470314026
1782853738644557600,5.3465576171875,-0.26058879494667053,0.10052171349525452,0.26826512813568115
1782853738654541600,5.35654150390625,-0.24747112393379211,0.02561844512820244,0.27174749970436096
1782853738664526300,5.3665263671875,-0.24311980605125427,-0.062427207827568054,0.25872042775154114
1782853738674510600,5.376510498046875,-0.26588743925094604,-0.16467182338237762,0.23546144366264343
1782853738684495600,5.38649560546875,-0.30501648783683777,-0.2560577094554901,0.19907715916633606
1782853738694480600,5.396480712890625,-0.3505411148071289,-0.3284280300140381,0.16897597908973694
1782853738704464600,5.406464599609375,-0.3841238021850586,-0.3545238673686981,0.158830925822258
1782853738714449700,5.41644970703125,-0.3964318633079529,-0.31307628750801086,0.19298329949378967
1782853738724433700,5.42643359375,-0.3814747929573059,-0.21669809520244598,0.2524592876434326
1782853738734418700,5.436418701171875,-0.3447015881538391,-0.09632720053195953,0.31962209939956665
1782853738744402700,5.446402587890625,-0.29302772879600525,0.0064016906544566154,0.3840915858745575
1782853738754387700,5.4563876953125,-0.23251405358314514,0.06593745946884155,0.41747698187828064
1782853738764371700,5.466371826171875,-0.17616069316864014,0.07692031562328339,0.4216901659965515
1782853738774356500,5.4763564453125,-0.1392575353384018,0.07134951651096344,0.39062759280204773
1782853738784340700,5.4863408203125,-0.12276701629161835,0.055950429290533066,0.3405257761478424
1782853738794325500,5.496325439453125,-0.12942145764827728,0.05490114167332649,0.302263081073761
1782853738804309500,5.5063095703125,-0.14012764394283295,0.06638886779546738,0.2918269634246826
1782853738814294500,5.51629443359375,-0.15842916071414948,0.04879842698574066,0.30362263321876526
1782853738824279600,5.526279541015625,-0.18837827444076538,-0.03944975137710571,0.34197622537612915
1782853738834263600,5.536263671875,-0.23447172343730927,-0.15700487792491913,0.38446298241615295
1782853738844248600,5.54624853515625,-0.2663081884384155,-0.25842487812042236,0.410976380109787
1782853738854232600,5.556232666015625,-0.25047624111175537,-0.35142913460731506,0.40427133440971375
1782853738864217600,5.566217529296875,-0.19872811436653137,-0.462356835603714,0.3568670451641083
1782853738874201600,5.57620166015625,-0.12217795103788376,-0.5673655271530151,0.2901221215724945
1782853738884186600,5.5861865234375,-0.04160531610250473,-0.6117038130760193,0.2299117147922516
1782853738894170600,5.596170654296875,0.048987168818712234,-0.5863646268844604,0.18822844326496124
1782853738904155400,5.6061552734375,0.12852196395397186,-0.5134164690971375,0.1695294827222824
1782853738914139400,5.616139404296875,0.17872440814971924,-0.438062846660614,0.15569356083869934
1782853738924124400,5.62612451171875,0.20162491500377655,-0.3780687153339386,0.14478278160095215
1782853738934108400,5.6361083984375,0.21157875657081604,-0.3190876841545105,0.1248098686337471
1782853738944093400,5.646093505859375,0.21126526594161987,-0.2606545686721802,0.09568177163600922
1782853738954078700,5.65607861328125,0.2072841078042984,-0.1785423904657364,0.05653516948223114
1782853738964062700,5.666062744140625,0.17931240797042847,-0.08533668518066406,-0.01210890430957079
1782853738974047700,5.6760478515625,0.15000565350055695,0.04299119487404823,-0.11270394921302795
1782853738984031700,5.68603173828125,0.1391439288854599,0.15126679837703705,-0.2488044798374176
1782853738994016800,5.696016845703125,0.1411820352077484,0.20665016770362854,-0.4128780961036682
1782853739004000800,5.706000732421875,0.1624671369791031,0.2361094206571579,-0.5746954083442688
1782853739013985500,5.715985595703125,0.19193421304225922,0.2681983709335327,-0.7005350589752197
1782853739023969500,5.725969482421875,0.23036977648735046,0.2649618685245514,-0.7681005001068115
1782853739033954600,5.73595458984375,0.2625996172428131,0.22512149810791016,-0.7707354426383972
1782853739043938600,5.7459384765625,0.3043532073497772,0.16005069017410278,-0.7226782441139221
1782853739053923600,5.755923583984375,0.3491089344024658,0.029881242662668228,-0.6353505253791809
1782853739063908600,5.76590869140625,0.4091171324253082,-0.13884802162647247,-0.5144013166427612
1782853739073892600,5.775892578125,0.46386292576789856,-0.2939388155937195,-0.3628019690513611
1782853739083877600,5.785877685546875,0.5042276978492737,-0.38642534613609314,-0.1921345442533493
1782853739093861600,5.795861572265625,0.5187467336654663,-0.4051212668418884,-0.04270937293767929
1782853739103846700,5.8058466796875,0.5213744044303894,-0.37095406651496887,0.07950031757354736
1782853739113830700,5.81583056640625,0.5238412618637085,-0.3016687333583832,0.16091473400592804
1782853739123815400,5.8258154296875,0.5257700085639954,-0.2124927043914795,0.20733189582824707
1782853739133799700,5.835799560546875,0.5276616215705872,-0.10245675593614578,0.22604139149188995
1782853739143784400,5.845784423828125,0.5210961103439331,-0.002605999819934368,0.22416158020496368
1782853739153768400,5.8557685546875,0.5212617516517639,0.09139613062143326,0.209681436419487
1782853739163753500,5.86575341796875,0.5260480046272278,0.17819032073020935,0.1816122829914093
1782853739173737500,5.875737548828125,0.5426477193832397,0.2210075557231903,0.15604354441165924
1782853739183722500,5.885722412109375,0.562552809715271,0.23056378960609436,0.1385679394006729
1782853739193707500,5.89570751953125,0.573925256729126,0.21111738681793213,0.13429702818393707
1782853739203691500,5.90569140625,0.5798885822296143,0.15170980989933014,0.1492525339126587
1782853739213676800,5.9156767578125,0.5850252509117126,0.07801268994808197,0.17556242644786835
1782853739223660500,5.92566064453125,0.580781877040863,-0.0124475983902812,0.21803370118141174
1782853739233645600,5.9356455078125,0.5776614546775818,-0.13213005661964417,0.28036630153656006
1782853739243629600,5.945629638671875,0.5623820424079895,-0.26314646005630493,0.36960166692733765
1782853739253614600,5.955614501953125,0.5311415195465088,-0.35884928703308105,0.4739464521408081
1782853739263598600,5.9655986328125,0.48747849464416504,-0.4071669280529022,0.571105420589447
1782853739273583600,5.97558349609375,0.4316825866699219,-0.4310043454170227,0.6194021105766296
1782853739283567600,5.985567626953125,0.3729202449321747,-0.4510653018951416,0.6021871566772461
1782853739293552600,5.995552734375,0.3269599378108978,-0.48499929904937744,0.512010931968689
1782853739303537700,6.00553759765625,0.2989024519920349,-0.5300769209861755,0.3679042160511017
1782853739313521700,6.015521728515625,0.29873278737068176,-0.5980448126792908,0.2292102575302124
1782853739323506700,6.025506591796875,0.3225279450416565,-0.6697580814361572,0.1275022029876709
1782853739333490700,6.03549072265625,0.3342101573944092,-0.6922103762626648,0.09903007745742798
1782853739343475500,6.045475341796875,0.3173459470272064,-0.6612376570701599,0.14232856035232544
1782853739353459700,6.055459716796875,0.2758145034313202,-0.6027173399925232,0.23302942514419556
1782853739363444500,6.065444580078125,0.21527203917503357,-0.5130554437637329,0.3270062804222107
1782853739373428500,6.075428466796875,0.1434367299079895,-0.3665696084499359,0.3867226243019104
1782853739383413500,6.08541357421875,0.045199859887361526,-0.25611233711242676,0.3733930289745331
1782853739393398000,6.09539794921875,-0.10035787522792816,-0.21558061242103577,0.2760092318058014
1782853739403383000,6.105383056640625,-0.2757725119590759,-0.2544890344142914,0.09661433845758438
1782853739413368000,6.1153681640625,-0.43893665075302124,-0.32090747356414795,-0.13420051336288452
1782853739423352000,6.12535205078125,-0.5609843134880066,-0.3157148063182831,-0.3805391192436218
1782853739433337000,6.135337158203125,-0.6382386088371277,-0.1926107257604599,-0.5991060733795166
1782853739443321000,6.145321044921875,-0.6902245879173279,0.08316999673843384,-0.759574830532074
1782853739453305900,6.155305908203125,-0.7411394715309143,0.42287829518318176,-0.880236804485321
1782853739463289900,6.165289794921875,-0.8177441358566284,0.7210946083068848,-0.9860494136810303
1782853739473275000,6.17527490234375,-0.9304829835891724,0.9413138031959534,-1.095409631729126
1782853739483259000,6.1852587890625,-1.0525639057159424,1.0377326011657715,-1.225365161895752
1782853739493244000,6.195243896484375,-1.1431819200515747,1.088120937347412,-1.351364016532898
1782853739503228000,6.205227783203125,-1.180492877960205,1.1789944171905518,-1.4460207223892212
1782853739513213000,6.215212890625,-1.1487109661102295,1.2458446025848389,-1.4906550645828247
1782853739523198000,6.225197998046875,-1.0466383695602417,1.2467930316925049,-1.476604700088501
1782853739533182000,6.235181884765625,-0.8979189395904541,1.1726895570755005,-1.3948105573654175
1782853739543167000,6.2451669921875,-0.7302284240722656,1.0702108144760132,-1.2298461198806763
1782853739553151000,6.25515087890625,-0.5660941004753113,0.958585262298584,-1.0254229307174683
1782853739563135700,6.2651357421875,-0.41574984788894653,0.8133007287979126,-0.8073921203613281
1782853739573120000,6.2751201171875,-0.29912522435188293,0.6223342418670654,-0.6005640625953674
1782853739583104800,6.285104736328125,-0.2428649216890335,0.4202428460121155,-0.4237206280231476
1782853739593088800,6.2950888671875,-0.21913455426692963,0.19572558999061584,-0.28635209798812866
1782853739603073800,6.30507373046875,-0.20874427258968353,-0.04322981834411621,-0.1838485449552536
1782853739613057800,6.315057861328125,-0.19626310467720032,-0.2509734332561493,-0.09833444654941559
1782853739623043000,6.32504296875,-0.18563836812973022,-0.405307412147522,-0.012209062464535236
1782853739633028000,6.335028076171875,-0.17666564881801605,-0.502732515335083,0.08882834017276764
1782853739643012000,6.34501220703125,-0.15336409211158752,-0.5412027835845947,0.20724478363990784
1782853739652997000,6.3549970703125,-0.11774404346942902,-0.526371419429779,0.3365321755409241
1782853739662981000,6.364981201171875,-0.07920169830322266,-0.4406313896179199,0.46023085713386536
1782853739672966000,6.3749658203125,-0.036899253726005554,-0.309429407119751,0.5651346445083618
1782853739682950100,6.3849501953125,-0.008561873808503151,-0.11745455861091614,0.6283676028251648
1782853739692935000,6.394934814453125,0.013126909732818604,0.09917175769805908,0.6361717581748962
1782853739702919000,6.4049189453125,0.045661672949790955,0.2831997573375702,0.58055579662323
1782853739712904000,6.414904052734375,0.07015210390090942,0.4188694357872009,0.47447752952575684
1782853739722888000,6.424887939453125,0.08465626090765,0.5196552276611328,0.3432326316833496
1782853739732873000,6.434873046875,0.07079637050628662,0.5752186179161072,0.20169147849082947
1782853739742858000,6.44485791015625,0.048788245767354965,0.5848300457000732,0.0738786906003952
1782853739752842000,6.454842041015625,0.015045728534460068,0.5704564452171326,-0.03115985170006752
1782853739762827000,6.464826904296875,-0.02832145430147648,0.5507328510284424,-0.10140374302864075
1782853739772811000,6.47481103515625,-0.07494647800922394,0.4946885108947754,-0.14085927605628967
1782853739782796000,6.484796142578125,-0.125644251704216,0.38564807176589966,-0.1325557380914688
1782853739792780000,6.494780029296875,-0.1868777871131897,0.2476142793893814,-0.08492802828550339
1782853739802764800,6.504764892578125,-0.24182280898094177,0.0984443947672844,-0.015947267413139343
1782853739812748800,6.514748779296875,-0.26789647340774536,-0.05259385704994202,0.06616491079330444
1782853739822733800,6.52473388671875,-0.2793717384338379,-0.20810699462890625,0.14769472181797028
1782853739832717800,6.5347177734375,-0.27335724234580994,-0.35686424374580383,0.2289416342973709
1782853739842702800,6.544702880859375,-0.25944867730140686,-0.491314560174942,0.3028314709663391
1782853739852688000,6.55468798828125,-0.2237652689218521,-0.5952699780464172,0.37876245379447937
1782853739862672000,6.564671875,-0.16710492968559265,-0.6097152829170227,0.47443440556526184
1782853739872657200,6.5746572265625,-0.09673888236284256,-0.5086392760276794,0.5803760290145874
1782853739882641000,6.584640869140625,-0.04270492121577263,-0.3405260145664215,0.6653574109077454
1782853739892626000,6.5946259765625,-0.025940319523215294,-0.15442298352718353,0.7249528765678406
1782853739902610200,6.604610107421875,-0.028655895963311195,0.03206304833292961,0.7462606430053711
1782853739912595000,6.614594970703125,-0.03308393061161041,0.17273813486099243,0.7387686371803284
1782853739922579000,6.624578857421875,-0.026780283078551292,0.2780054807662964,0.7103607654571533
1782853739932564000,6.63456396484375,-0.03388426452875137,0.3422318696975708,0.6771469116210938
1782853739942549000,6.644549072265625,-0.04676726832985878,0.33657708764076233,0.6482928395271301
1782853739952533000,6.654532958984375,-0.0547194667160511,0.30208009481430054,0.6243638396263123
1782853739962518000,6.66451806640625,-0.05565425008535385,0.29506170749664307,0.6135658621788025
1782853739972502000,6.674501953125,-0.04644690454006195,0.3209529519081116,0.6046575903892517
1782853739982487000,6.684487060546875,-0.030832042917609215,0.3715747892856598,0.5771297216415405
1782853739992471000,6.694470947265625,0.0008795477915555239,0.4160245358943939,0.5181159377098083
1782853740002456000,6.7044560546875,0.025290055200457573,0.4117681384086609,0.4159935414791107
1782853740012440000,6.714440185546875,0.03743167221546173,0.3321231007575989,0.27380043268203735
1782853740022424800,6.7244248046875,0.028463274240493774,0.19409863650798798,0.10396618396043777
1782853740032408800,6.734408935546875,0.005928936414420605,0.017461009323596954,-0.0784883126616478
1782853740042393900,6.744393798828125,-0.013341186568140984,-0.1557442843914032,-0.24403667449951172
1782853740052379000,6.75437890625,-0.026770442724227905,-0.23022517561912537,-0.3430626094341278
1782853740062363000,6.76436279296875,-0.026618096977472305,-0.19731391966342926,-0.36189204454421997
1782853740072348000,6.774347900390625,-0.000268514733761549,-0.1282099485397339,-0.3208087980747223
1782853740082332000,6.784331787109375,0.046857718378305435,0.046296797692775726,-0.24642476439476013
1782853740092317000,6.79431689453125,0.11248546838760376,0.19407454133033752,-0.16916698217391968
1782853740102301000,6.804301025390625,0.18253351747989655,0.25565117597579956,-0.10106125473976135
1782853740112286000,6.814285888671875,0.2474624514579773,0.28732866048812866,-0.017331736162304878
1782853740122270000,6.82427001953125,0.3054594397544861,0.2722835838794708,0.05805518478155136
1782853740132254700,6.834254638671875,0.37545982003211975,0.1719561666250229,0.11918991804122925
1782853740142239000,6.844239013671875,0.4591169059276581,0.04879966750741005,0.1817704439163208
1782853740152224000,6.85422412109375,0.5475742816925049,-0.05230351537466049,0.25109386444091797
1782853740162209000,6.864208984375,0.6248502731323242,-0.11162392795085907,0.32769453525543213
1782853740172193000,6.874193115234375,0.6840997338294983,-0.1277989149093628,0.39303094148635864
1782853740182178000,6.884177978515625,0.7158573865890503,-0.10621151328086853,0.4329468309879303
1782853740192162000,6.894162109375,0.7171722054481506,-0.08327451348304749,0.4313678443431854
1782853740202147000,6.90414697265625,0.6851803660392761,-0.05662587285041809,0.3894272446632385
1782853740212131000,6.914131103515625,0.6341480612754822,-0.010488735511898994,0.3242279887199402
1782853740222116000,6.9241162109375,0.5868911147117615,0.07161790877580643,0.2423821985721588
1782853740232100000,6.93410009765625,0.5540905594825745,0.16947202384471893,0.15745586156845093
1782853740242084900,6.9440849609375,0.5405073165893555,0.2266525775194168,0.08833882212638855
1782853740252070000,6.95406982421875,0.5216849446296692,0.2149655520915985,0.03984878212213516
1782853740262054000,6.964053955078125,0.4870625436306,0.19690802693367004,0.016678212210536003
1782853740272039000,6.974038818359375,0.4419403374195099,0.204382985830307,0.004784002900123596
1782853740282023000,6.98402294921875,0.4012698531150818,0.2350982129573822,-0.013020878657698631
1782853740292008000,6.994008056640625,0.3678429126739502,0.25225430727005005,-0.04798578470945358
1782853740301992000,7.003991943359375,0.35029345750808716,0.23422668874263763,-0.08106034994125366
1782853740311977000,7.01397705078125,0.34115803241729736,0.19028693437576294,-0.09654449671506882
1782853740321961000,7.0239609375,0.3409625291824341,0.14616967737674713,-0.07988106459379196
1782853740331946000,7.033946044921875,0.3373291790485382,0.11344021558761597,-0.025521423667669296
1782853740341930800,7.0439306640625,0.33660411834716797,0.0798749253153801,0.07082106173038483
1782853740351915000,7.0539150390625,0.3255631625652313,0.030473284423351288,0.19094960391521454
1782853740361899800,7.063899658203125,0.27913251519203186,-0.020759224891662598,0.29921281337738037
1782853740371883800,7.0738837890625,0.20881573855876923,-0.0629492923617363,0.37060922384262085
1782853740381868800,7.083868896484375,0.13828882575035095,-0.09952577203512192,0.3915448784828186
1782853740391852800,7.093852783203125,0.0671781674027443,-0.15653657913208008,0.3597946763038635
1782853740401841400,7.10384130859375,0.01241157203912735,-0.2201233059167862,0.2773631513118744
1782853740411825400,7.113825439453125,-0.0165372546762228,-0.31339091062545776,0.18324382603168488
1782853740421810400,7.123810546875,-0.009881723672151566,-0.40980762243270874,0.09471499174833298
1782853740431794400,7.13379443359375,0.02264905534684658,-0.41629722714424133,0.042408376932144165
1782853740441779500,7.143779541015625,0.06411372870206833,-0.33426761627197266,0.04682863503694534
1782853740451764200,7.15376416015625,0.08685818314552307,-0.1587434709072113,0.06718530505895615
1782853740461748500,7.16374853515625,0.06565645337104797,0.06507745385169983,0.057240042835474014
1782853740471733200,7.173733154296875,0.02458598092198372,0.31388142704963684,-0.023019108921289444
1782853740481717200,7.18371728515625,-0.005698897875845432,0.5678611993789673,-0.17623108625411987
1782853740491702300,7.193702392578125,-0.03369857370853424,0.770577073097229,-0.3957144320011139
1782853740501686300,7.203686279296875,-0.06229747086763382,0.8420625329017639,-0.6605697274208069
1782853740511671300,7.21367138671875,-0.07650916278362274,0.7978665828704834,-0.9092407822608948
1782853740521655300,7.2236552734375,-0.07700682431459427,0.7197700142860413,-1.0734798908233643
1782853740531640300,7.233640380859375,-0.09066591411828995,0.6934427618980408,-1.1368029117584229
1782853740541625300,7.243625244140625,-0.10381273925304413,0.7546274662017822,-1.0847530364990234
1782853740551609300,7.253609375,-0.14245307445526123,0.8798490166664124,-0.953646719455719
1782853740561594400,7.263594482421875,-0.20325490832328796,1.015455722808838,-0.8284808993339539
1782853740571578400,7.273578369140625,-0.2799486219882965,1.0482019186019897,-0.74247807264328
1782853740581563100,7.283563232421875,-0.3761765658855438,1.0014771223068237,-0.6989399194717407
1782853740591547100,7.293547119140625,-0.4559459686279297,0.9384241104125977,-0.6652994155883789
1782853740601532200,7.3035322265625,-0.5182852745056152,0.8320203423500061,-0.6542218327522278
1782853740611516200,7.31351611328125,-0.5413511991500854,0.6888818144798279,-0.6711009740829468
1782853740621501200,7.323501220703125,-0.5293124318122864,0.5540132522583008,-0.6845169067382812
1782853740631486500,7.333486572265625,-0.47209757566452026,0.4192067086696625,-0.6708245277404785
1782853740641470500,7.343470458984375,-0.3880857527256012,0.27673932909965515,-0.6144046187400818
1782853740651455500,7.35345556640625,-0.31146129965782166,0.19386255741119385,-0.49734967947006226
1782853740661439500,7.363439453125,-0.23069079220294952,0.1722392588853836,-0.3120407164096832
1782853740671424500,7.373424560546875,-0.15486714243888855,0.16187715530395508,-0.0923198014497757
1782853740681408500,7.383408447265625,-0.10413818806409836,0.11171042919158936,0.11896120756864548
1782853740691393300,7.393393310546875,-0.10499172657728195,0.04222988709807396,0.28961071372032166
1782853740701377300,7.403377197265625,-0.19146586954593658,0.03517775982618332,0.40501394867897034
1782853740711362300,7.4133623046875,-0.33760866522789,0.09784087538719177,0.516015350818634
1782853740721346300,7.42334619140625,-0.47651126980781555,-0.13722293078899384,0.38638147711753845
1782853740731331300,7.433331298828125,-0.5851538777351379,-0.3226154148578644,0.17167741060256958
1782853740741316400,7.44331640625,-0.6448160409927368,-0.44181397557258606,-0.05528103932738304
1782853740751300400,7.45330029296875,-0.6763833165168762,-0.4398195445537567,-0.23112529516220093
1782853740761285400,7.463285400390625,-0.7165594696998596,-0.314116895198822,-0.3104509711265564
1782853740771269400,7.473269287109375,-0.7610518336296082,-0.1605885773897171,-0.3373219966888428
