time,seconds_elapsed,z,y,x
1782853743038357800,0.074357666015625,-0.24218891561031342,0.49890008568763733,0.37689298391342163
1782853743048342800,0.0843427734375,-0.215378075838089,0.6202776432037354,0.4100187122821808
1782853743058327800,0.094327880859375,-0.1862766146659851,0.6877434253692627,0.44318491220474243
1782853743068311800,0.104311767578125,-0.148401141166687,0.7187168002128601,0.46479326486587524
1782853743078296800,0.114296875,-0.1015620082616806,0.7044732570648193,0.4743975102901459
1782853743088280800,0.12428076171875,-0.05247035622596741,0.6374191641807556,0.4623680114746094
1782853743098265900,0.134265869140625,-0.007318561431020498,0.5188478827476501,0.4602731466293335
1782853743108249900,0.144249755859375,0.015063442289829254,0.3843368887901306,0.47103551030158997
1782853743118235000,0.15423486328125,0.015408175066113472,0.25627952814102173,0.49019840359687805
1782853743128220000,0.164219970703125,-0.006713904906064272,0.12594977021217346,0.5157482028007507
1782853743138204000,0.174203857421875,-0.03885570541024208,-0.006869609467685223,0.5498237013816833
1782853743148189000,0.18418896484375,-0.06784900277853012,-0.12237649410963058,0.5883231163024902
1782853743158173000,0.1941728515625,-0.10771356523036957,-0.20954884588718414,0.6283411383628845
1782853743168157700,0.20415771484375,-0.15205785632133484,-0.2604312002658844,0.6678757667541504
1782853743178142000,0.214141845703125,-0.18199855089187622,-0.28429800271987915,0.6958544850349426
1782853743188126700,0.224126708984375,-0.201200470328331,-0.30051347613334656,0.7080642580986023
1782853743198110700,0.23411083984375,-0.210293710231781,-0.32302600145339966,0.7115882039070129
1782853743208095700,0.244095703125,-0.19424045085906982,-0.3422947824001312,0.7085913419723511
1782853743218080800,0.254080810546875,-0.13522650301456451,-0.3319266140460968,0.705430269241333
1782853743228064800,0.264064697265625,-0.04909481108188629,-0.2649795413017273,0.7055194973945618
1782853743238049800,0.2740498046875,0.03481636568903923,-0.12297036498785019,0.7162286043167114
1782853743248033800,0.28403369140625,0.09255875647068024,0.047167543321847916,0.7199565172195435
1782853743258018800,0.294018798828125,0.10626109689474106,0.24442414939403534,0.7033572793006897
1782853743268002800,0.3040029296875,0.06106192618608475,0.4851706922054291,0.6472873687744141
1782853743277987800,0.31398779296875,-0.01853448525071144,0.7047815322875977,0.5354509353637695
1782853743287972900,0.323972900390625,-0.10499667376279831,0.8929386734962463,0.39151397347450256
1782853743297956600,0.33395654296875,-0.17610494792461395,1.0586304664611816,0.2328316569328308
1782853743307942000,0.34394189453125,-0.21482038497924805,1.1447712182998657,0.06469191610813141
1782853743317926000,0.35392578125,-0.20890925824642181,1.142723560333252,-0.11043913662433624
1782853743327911000,0.363910888671875,-0.15592166781425476,1.0683939456939697,-0.266109436750412
1782853743337895000,0.37389501953125,-0.058121588081121445,0.983847439289093,-0.35593360662460327
1782853743347880000,0.3838798828125,0.07796407490968704,0.8805487751960754,-0.3687135875225067
1782853743357865000,0.393864990234375,0.2064347267150879,0.7021810412406921,-0.3168829679489136
1782853743367849000,0.403848876953125,0.2787667214870453,0.4609830975532532,-0.22688516974449158
1782853743377833700,0.413833740234375,0.2731570303440094,0.18156634271144867,-0.13239134848117828
1782853743387818000,0.42381787109375,0.18134403228759766,-0.09408973157405853,-0.051474131643772125
1782853743397802800,0.433802734375,0.03605373576283455,-0.334212064743042,-0.0071741617284715176
1782853743407787000,0.443787109375,-0.09734320640563965,-0.5110592842102051,-0.033769819885492325
1782853743417772000,0.45377197265625,-0.17782588303089142,-0.5976128578186035,-0.11492365598678589
1782853743427757000,0.463757080078125,-0.1922258585691452,-0.5232424736022949,-0.20045985281467438
1782853743437741000,0.473740966796875,-0.15102612972259521,-0.3464294672012329,-0.2429596185684204
1782853743447726000,0.48372607421875,-0.09145680069923401,-0.1467461884021759,-0.25108733773231506
1782853743457710000,0.4937099609375,-0.02144717425107956,0.022674985229969025,-0.2520882785320282
1782853743467695000,0.503695068359375,0.05453334376215935,0.12490468472242355,-0.27586522698402405
1782853743477679000,0.51367919921875,0.13780318200588226,0.15342237055301666,-0.3309032618999481
1782853743487663900,0.523663818359375,0.22363446652889252,0.13719972968101501,-0.40725794434547424
1782853743497649000,0.53364892578125,0.30202415585517883,0.09198763966560364,-0.49548789858818054
1782853743507633000,0.5436328125,0.3745529353618622,0.042336996644735336,-0.5660526156425476
1782853743517618000,0.553617919921875,0.4342564344406128,-0.01706589385867119,-0.5985257625579834
1782853743527602000,0.563601806640625,0.4860663414001465,-0.0908873900771141,-0.5893340706825256
1782853743537587000,0.5735869140625,0.5379876494407654,-0.15882790088653564,-0.5303958654403687
1782853743547571000,0.583571044921875,0.5847935080528259,-0.2260282337665558,-0.41635212302207947
1782853743557556000,0.593555908203125,0.6121779680252075,-0.2744677662849426,-0.26109054684638977
1782853743567541000,0.603541015625,0.6075353026390076,-0.3066169023513794,-0.09860043227672577
1782853743577525000,0.61352490234375,0.5731022357940674,-0.32742124795913696,0.03280533105134964
1782853743587510000,0.623510009765625,0.5352573394775391,-0.3428119122982025,0.11143595725297928
1782853743597493800,0.63349365234375,0.5022983551025391,-0.3285065293312073,0.12850090861320496
1782853743607479000,0.64347900390625,0.4647198021411896,-0.2931586802005768,0.09188536554574966
1782853743617462800,0.653462890625,0.4289490282535553,-0.23473447561264038,0.018498029559850693
1782853743627448000,0.663447998046875,0.39277559518814087,-0.18912836909294128,-0.08134547621011734
1782853743637433000,0.67343310546875,0.3778579831123352,-0.15537098050117493,-0.18478216230869293
1782853743647417000,0.6834169921875,0.38387593626976013,-0.12994791567325592,-0.2589040696620941
1782853743657402000,0.693402099609375,0.3962443172931671,-0.08280269056558609,-0.2890050709247589
1782853743667386000,0.70338623046875,0.41216737031936646,-0.027222514152526855,-0.2784895896911621
1782853743677371100,0.71337109375,0.4163598120212555,0.006453747861087322,-0.2457125335931778
1782853743687355100,0.723355224609375,0.40433961153030396,0.015578270889818668,-0.19199150800704956
1782853743697340000,0.73333984375,0.38150981068611145,0.00642775371670723,-0.13232728838920593
1782853743707324000,0.743323974609375,0.3694981634616852,-0.03807899355888367,-0.07984676957130432
1782853743717309000,0.753308837890625,0.37771913409233093,-0.13401030004024506,-0.019441617652773857
1782853743727294000,0.7632939453125,0.39079713821411133,-0.24895019829273224,0.051756929606199265
1782853743737278000,0.77327783203125,0.4034612476825714,-0.3385738134384155,0.1489497870206833
1782853743747263000,0.783262939453125,0.4103929400444031,-0.39632901549339294,0.2741556465625763
1782853743757247000,0.7932470703125,0.39795756340026855,-0.39056846499443054,0.4060291647911072
1782853743767232000,0.80323193359375,0.3766504228115082,-0.31970202922821045,0.49458566308021545
1782853743777216000,0.813216064453125,0.35578614473342896,-0.23456227779388428,0.5257823467254639
1782853743787201000,0.823200927734375,0.3419771194458008,-0.14464330673217773,0.48959028720855713
1782853743797185800,0.833185791015625,0.3284893333911896,-0.08098042011260986,0.4049253463745117
1782853743807169800,0.843169677734375,0.3005426526069641,-0.042546480894088745,0.28403913974761963
1782853743817154800,0.85315478515625,0.26971518993377686,-0.027129357680678368,0.15184736251831055
1782853743827138800,0.863138916015625,0.23564592003822327,-0.08862387388944626,0.027670297771692276
1782853743837124000,0.8731240234375,0.22106309235095978,-0.2048385888338089,-0.06161080673336983
1782853743847107800,0.88310791015625,0.20221617817878723,-0.3266390562057495,-0.08142445981502533
1782853743857093000,0.893093017578125,0.18259140849113464,-0.42575404047966003,-0.05451364815235138
1782853743867078100,0.903078125,0.1550852209329605,-0.47804519534111023,0.00842350721359253
1782853743877062100,0.913062255859375,0.12951695919036865,-0.5054086446762085,0.06443710625171661
1782853743887047200,0.923047119140625,0.09948290139436722,-0.5531125068664551,0.06251110881567001
1782853743897031200,0.93303125,0.07785410434007645,-0.6404980421066284,-0.025232650339603424
1782853743907016000,0.943015869140625,0.07480239123106003,-0.7227819561958313,-0.1560194194316864
1782853743917000000,0.953,0.08614835143089294,-0.7297679781913757,-0.280135840177536
1782853743926985000,0.96298486328125,0.10360057651996613,-0.643673837184906,-0.357465535402298
1782853743936970000,0.972969970703125,0.09031979739665985,-0.48971110582351685,-0.4045495092868805
1782853743946954000,0.9829541015625,0.030496150255203247,-0.30475136637687683,-0.4499361515045166
1782853743956939000,0.99293896484375,-0.08369772136211395,-0.1501746028661728,-0.5289982557296753
1782853743966923000,1.002923095703125,-0.21016724407672882,-0.05421663448214531,-0.6385149359703064
1782853743976908000,1.012907958984375,-0.3102871775627136,0.01575871929526329,-0.7609787583351135
1782853743986892000,1.02289208984375,-0.37684276700019836,0.038539934903383255,-0.8610427975654602
1782853743996877000,1.032876953125,-0.4183598756790161,0.06192689388990402,-0.9021099805831909
1782853744006861800,1.04286181640625,-0.4250097870826721,0.08575738966464996,-0.8583822250366211
1782853744016845800,1.052845703125,-0.38732239603996277,0.09744462370872498,-0.7479288578033447
1782853744026830800,1.062830810546875,-0.3215995728969574,0.07820967584848404,-0.5935654044151306
1782853744036814800,1.07281494140625,-0.2457367181777954,0.026879440993070602,-0.4156043231487274
1782853744046800000,1.0827998046875,-0.19813750684261322,-0.04862676560878754,-0.24801450967788696
1782853744056784000,1.092783935546875,-0.19683563709259033,-0.11342694610357285,-0.12914440035820007
1782853744066769000,1.102768798828125,-0.20934423804283142,-0.15955369174480438,-0.06644213944673538
1782853744076754200,1.112754150390625,-0.2326451689004898,-0.19040986895561218,-0.05263347551226616
1782853744086738000,1.122738037109375,-0.27823448181152344,-0.18417593836784363,-0.060671959072351456
1782853744096723200,1.13272314453125,-0.35434550046920776,-0.16915151476860046,-0.0789419561624527
1782853744106707200,1.142707275390625,-0.45965778827667236,-0.1526620090007782,-0.0941624566912651
1782853744116692000,1.15269189453125,-0.5732320547103882,-0.10712496191263199,-0.11204443126916885
1782853744126676000,1.162676025390625,-0.6682384610176086,-0.03606091067194939,-0.13121360540390015
1782853744136661000,1.172660888671875,-0.7347568273544312,0.07621380686759949,-0.1491134762763977
1782853744146645000,1.18264501953125,-0.7694039940834045,0.21435756981372833,-0.16649378836154938
1782853744156630000,1.192630126953125,-0.7851014137268066,0.39679190516471863,-0.17626436054706573
1782853744166615000,1.202614990234375,-0.7664179801940918,0.5700332522392273,-0.18840277194976807
1782853744176599000,1.21259912109375,-0.7253023386001587,0.7035722732543945,-0.211577907204628
1782853744186584000,1.222583984375,-0.6542835235595703,0.780486524105072,-0.24401521682739258
1782853744196568000,1.232568115234375,-0.5588395595550537,0.812506914138794,-0.2758239209651947
1782853744206553000,1.242552978515625,-0.43032392859458923,0.7791337370872498,-0.294891357421875
1782853744216537000,1.252537109375,-0.2886449098587036,0.6909732222557068,-0.2901709973812103
1782853744226521900,1.26252197265625,-0.18682590126991272,0.5644355416297913,-0.2468634843826294
1782853744236507000,1.2725068359375,-0.13450074195861816,0.44082194566726685,-0.1590065360069275
1782853744246491000,1.282490966796875,-0.12383797764778137,0.3226662874221802,-0.05994279682636261
1782853744256476000,1.292475830078125,-0.1320980191230774,0.1984584480524063,0.03798579424619675
1782853744266460000,1.3024599609375,-0.1611190289258957,0.08756520599126816,0.1254786252975464
1782853744276445000,1.31244482421875,-0.18091316521167755,-0.02237585186958313,0.19136536121368408
1782853744286429000,1.322428955078125,-0.18076668679714203,-0.12692809104919434,0.2385677546262741
1782853744296414000,1.3324140625,-0.15186935663223267,-0.2041357308626175,0.28502383828163147
1782853744306399200,1.342399169921875,-0.1083192303776741,-0.2727925479412079,0.3281569480895996
1782853744316383000,1.352383056640625,-0.06354910880327225,-0.335285484790802,0.38202112913131714
1782853744326368000,1.362367919921875,-0.03127506002783775,-0.37489253282546997,0.4370196759700775
1782853744336351700,1.372351806640625,-0.011067969724535942,-0.3609720468521118,0.49283140897750854
1782853744346337000,1.3823369140625,0.008192011155188084,-0.27387604117393494,0.5479161739349365
1782853744356321000,1.392321044921875,0.016139648854732513,-0.12172336131334305,0.6013882756233215
1782853744366306000,1.40230615234375,0.0021625796798616648,0.05568443983793259,0.6504242420196533
1782853744376291000,1.412291015625,-0.040040865540504456,0.20671989023685455,0.681171178817749
1782853744386275000,1.422275146484375,-0.10423476994037628,0.31499284505844116,0.717781662940979
1782853744396260000,1.432260009765625,-0.17939049005508423,0.40154093503952026,0.7641546726226807
1782853744406247000,1.442246826171875,-0.24507522583007812,0.5072005391120911,0.8102151155471802
1782853744416232200,1.452232177734375,-0.2731218934059143,0.5770490169525146,0.8086943030357361
1782853744426216000,1.4622158203125,-0.26609593629837036,0.5633087158203125,0.7399789094924927
1782853744436201200,1.472201171875,-0.2049102485179901,0.46092888712882996,0.6174437403678894
1782853744446186000,1.48218603515625,-0.10671524703502655,0.2424846887588501,0.46570292115211487
1782853744456170000,1.492169921875,-0.009409576654434204,-0.07119984924793243,0.27875617146492004
1782853744466155000,1.502155029296875,0.06615042686462402,-0.4230700135231018,0.061096835881471634
1782853744476139000,1.512138916015625,0.13025696575641632,-0.6744112968444824,-0.161396324634552
1782853744486124000,1.5221240234375,0.18663449585437775,-0.7135863900184631,-0.3586566746234894
1782853744496108000,1.53210791015625,0.22860820591449738,-0.5978577733039856,-0.49646124243736267
1782853744506093000,1.542093017578125,0.2192077785730362,-0.44926193356513977,-0.5764303803443909
1782853744516078000,1.552078125,0.164068803191185,-0.3286953270435333,-0.6281061172485352
1782853744526062000,1.56206201171875,0.09920457750558853,-0.2533073425292969,-0.6767290234565735
1782853744536047000,1.572047119140625,0.04937558248639107,-0.18639279901981354,-0.699995219707489
1782853744546031000,1.582031005859375,0.022997505962848663,-0.13339562714099884,-0.7096946835517883
1782853744556015900,1.592015869140625,0.022191336378455162,-0.08126161992549896,-0.710832417011261
1782853744565999900,1.601999755859375,0.05867903679609299,-0.0029777316376566887,-0.6818047761917114
1782853744575985000,1.61198486328125,0.12459368258714676,0.07888989895582199,-0.6245044469833374
1782853744585969000,1.621968994140625,0.19962771236896515,0.11173492670059204,-0.5497860312461853
1782853744595954000,1.631953857421875,0.2967471182346344,0.11040851473808289,-0.467094361782074
1782853744605939000,1.64193896484375,0.4095540940761566,0.0669313445687294,-0.39311864972114563
1782853744615923000,1.6519228515625,0.5184745192527771,-0.016621757298707962,-0.3310560882091522
1782853744625908000,1.661907958984375,0.5947027206420898,-0.08547326177358627,-0.2768338918685913
1782853744635892000,1.67189208984375,0.6438506841659546,-0.1342468112707138,-0.23308511078357697
1782853744645877000,1.681876953125,0.684989333152771,-0.2082693725824356,-0.1864667385816574
1782853744655862000,1.691862060546875,0.7137043476104736,-0.294677734375,-0.1285540610551834
1782853744665845800,1.701845703125,0.7389750480651855,-0.3719125986099243,-0.047721266746520996
1782853744675831000,1.7118310546875,0.7514665126800537,-0.4786113202571869,0.05555346608161926
1782853744685815000,1.72181494140625,0.7476717233657837,-0.596863865852356,0.18348000943660736
1782853744695800000,1.731800048828125,0.7225121855735779,-0.6422160863876343,0.32838869094848633
1782853744705784000,1.7417841796875,0.6818081736564636,-0.6063992381095886,0.45022404193878174
1782853744715769000,1.75176904296875,0.6429591774940491,-0.5197095274925232,0.5365875959396362
1782853744725754000,1.761754150390625,0.6124548316001892,-0.3857397437095642,0.570009708404541
1782853744735738000,1.771738037109375,0.5993825197219849,-0.22549910843372345,0.5594311356544495
1782853744745723100,1.78172314453125,0.6018722653388977,-0.041246719658374786,0.5103933215141296
1782853744755707100,1.79170703125,0.5995959043502808,0.14290963113307953,0.4431892931461334
1782853744765692000,1.80169189453125,0.5896937251091003,0.28418871760368347,0.3794633150100708
1782853744775676000,1.811676025390625,0.5606191754341125,0.3890620172023773,0.3264915347099304
1782853744785661000,1.821660888671875,0.5240470767021179,0.44173482060432434,0.2868804931640625
1782853744795645000,1.83164501953125,0.4903758764266968,0.49279043078422546,0.2536860704421997
1782853744805630000,1.8416298828125,0.46472617983818054,0.5171839594841003,0.2280621975660324
1782853744815615000,1.851614990234375,0.45538246631622314,0.49769046902656555,0.20626626908779144
1782853744825599000,1.861598876953125,0.45164579153060913,0.41366904973983765,0.19816306233406067
1782853744835584000,1.871583984375,0.4495157301425934,0.2967335879802704,0.19965218007564545
1782853744845568000,1.881568115234375,0.44799479842185974,0.1485491693019867,0.21387027204036713
1782853744855553000,1.891552978515625,0.4339093863964081,-0.05157555639743805,0.23482371866703033
1782853744865537000,1.901537109375,0.4142422080039978,-0.2848588824272156,0.2566443383693695
1782853744875521800,1.911521728515625,0.37870126962661743,-0.500098466873169,0.29148441553115845
1782853744885507000,1.921507080078125,0.34341466426849365,-0.6262683868408203,0.3335258662700653
1782853744895490800,1.93149072265625,0.32282254099845886,-0.6787014007568359,0.3720424771308899
1782853744905476000,1.94147607421875,0.3265323340892792,-0.6809744238853455,0.3794809579849243
1782853744915459800,1.9514599609375,0.35447752475738525,-0.6587543487548828,0.35867002606391907
1782853744925445000,1.961445068359375,0.3833123743534088,-0.6103849411010742,0.32332855463027954
1782853744935429000,1.97142919921875,0.39551815390586853,-0.5199790000915527,0.28584006428718567
1782853744945414100,1.9814140625,0.37629011273384094,-0.41073668003082275,0.24371203780174255
1782853744955399000,1.99139892578125,0.3065933287143707,-0.33404573798179626,0.16727542877197266
1782853744965383200,2.001383056640625,0.20706059038639069,-0.26759055256843567,0.05878943204879761
1782853744975368000,2.011367919921875,0.10208116471767426,-0.23289799690246582,-0.09739606827497482
1782853744985352000,2.02135205078125,0.017393702641129494,-0.25316280126571655,-0.299276202917099
1782853744995337000,2.0313369140625,-0.02955922856926918,-0.32215943932533264,-0.531243622303009
1782853745005321000,2.041321044921875,-0.05481957644224167,-0.3840917646884918,-0.7507796883583069
1782853745015306000,2.051305908203125,-0.0794585570693016,-0.422873318195343,-0.9406356811523438
1782853745025290000,2.0612900390625,-0.13348397612571716,-0.45260217785835266,-1.0846941471099854
1782853745035275000,2.07127490234375,-0.20422637462615967,-0.4645272195339203,-1.1670072078704834
1782853745045260000,2.081260009765625,-0.28371667861938477,-0.41115081310272217,-1.2033213376998901
1782853745055244000,2.091244140625,-0.393800288438797,-0.30789199471473694,-1.2029298543930054
1782853745065229000,2.10122900390625,-0.5734821557998657,-0.16526052355766296,-1.182716965675354
1782853745075213000,2.111213134765625,-0.7914982438087463,-0.01595909334719181,-1.1752333641052246
1782853745085197800,2.12119775390625,-0.9947174191474915,0.106845922768116,-1.1820621490478516
1782853745095181800,2.131181884765625,-1.1578052043914795,0.2252403050661087,-1.2031478881835938
1782853745105166800,2.141166748046875,-1.2677537202835083,0.3542187809944153,-1.2157621383666992
1782853745115152000,2.15115185546875,-1.3080575466156006,0.5209855437278748,-1.1943721771240234
1782853745125136000,2.161135986328125,-1.278146505355835,0.6997196078300476,-1.1232506036758423
1782853745135121200,2.17112109375,-1.2003467082977295,0.8051109313964844,-1.0104093551635742
1782853745145105000,2.18110498046875,-1.092633605003357,0.8162791728973389,-0.8486151099205017
1782853745155090200,2.191090087890625,-0.9760146141052246,0.7925747632980347,-0.6236095428466797
1782853745165074000,2.201073974609375,-0.8529020547866821,0.7489583492279053,-0.37000200152397156
1782853745175059200,2.21105908203125,-0.7624882459640503,0.6570361256599426,-0.12415870279073715
1782853745185044000,2.2210439453125,-0.7179423570632935,0.540887713432312,0.10432640463113785
1782853745195028000,2.231028076171875,-0.7111027836799622,0.4447062015533447,0.30156901478767395
1782853745205013000,2.241012939453125,-0.7278775572776794,0.38964107632637024,0.4595264196395874
1782853745214997000,2.2509970703125,-0.7499082684516907,0.37599825859069824,0.5703189969062805
1782853745224982000,2.26098193359375,-0.759679913520813,0.40988805890083313,0.6445607542991638
1782853745234966000,2.270966064453125,-0.7491812109947205,0.5023361444473267,0.6836750507354736
1782853745244951000,2.280950927734375,-0.7139108777046204,0.6189921498298645,0.702185869216919
1782853745254936000,2.29093603515625,-0.6558822393417358,0.7308385372161865,0.7122542858123779
1782853745264920000,2.300920166015625,-0.5876227617263794,0.8401892781257629,0.7254209518432617
1782853745274905000,2.310905029296875,-0.5131847262382507,0.9353778958320618,0.7474768757820129
1782853745284889000,2.32088916015625,-0.442940890789032,0.9961217045783997,0.7601785659790039
1782853745294873900,2.330873779296875,-0.3736371695995331,1.015535831451416,0.756390392780304
1782853745304857900,2.34085791015625,-0.31301242113113403,1.0062518119812012,0.7232236862182617
1782853745314843000,2.3508427734375,-0.2647688090801239,0.9686359167098999,0.6709718108177185
1782853745324827000,2.360826904296875,-0.23186515271663666,0.9105784893035889,0.5951438546180725
1782853745334812000,2.37081201171875,-0.19722826778888702,0.8305257558822632,0.49944448471069336
1782853745344797000,2.380796875,-0.17257671058177948,0.7168369889259338,0.3860507905483246
1782853745354781000,2.390781005859375,-0.14973510801792145,0.5876182913780212,0.26000210642814636
1782853745364766000,2.400765869140625,-0.13458570837974548,0.4051284193992615,0.14545421302318573
1782853745374750000,2.41075,-0.13034144043922424,0.17825207114219666,0.04351089894771576
1782853745384735200,2.4207353515625,-0.14582771062850952,-0.03721684217453003,-0.03609125316143036
1782853745394719000,2.430718994140625,-0.16660338640213013,-0.19600613415241241,-0.06406422704458237
1782853745404700400,2.440700439453125,-0.1953841745853424,-0.2993684709072113,-0.041364509612321854
1782853745414685700,2.450685791015625,-0.2000861018896103,-0.375546395778656,0.02959601581096649
1782853745424669400,2.46066943359375,-0.16933271288871765,-0.42687883973121643,0.14098352193832397
1782853745434654700,2.47065478515625,-0.11359938979148865,-0.44315069913864136,0.2808695137500763
1782853745444638700,2.480638671875,-0.02877851016819477,-0.41944217681884766,0.42609700560569763
1782853745454623700,2.490623779296875,0.06318220496177673,-0.3747551739215851,0.5619233250617981
1782853745464607700,2.500607666015625,0.1529986411333084,-0.32015106081962585,0.6828076839447021
1782853745474592800,2.5105927734375,0.22664013504981995,-0.26940709352493286,0.7630367279052734
1782853745484577500,2.52057763671875,0.2767597734928131,-0.22917737066745758,0.8222238421440125
1782853745494561800,2.530561767578125,0.30302828550338745,-0.21224161982536316,0.8647947311401367
1782853745504546600,2.540546630859375,0.31092506647109985,-0.20866098999977112,0.8840267062187195
1782853745514530600,2.550530517578125,0.30432504415512085,-0.17365789413452148,0.8767917156219482
1782853745524515600,2.560515625,0.27695149183273315,-0.13610252737998962,0.8274081945419312
1782853745534499600,2.57049951171875,0.23957502841949463,-0.1512649655342102,0.7083523869514465
1782853745544484600,2.580484619140625,0.2162047177553177,-0.1962316483259201,0.5375117063522339
1782853745554469600,2.5904697265625,0.22514398396015167,-0.24383148550987244,0.34040993452072144
1782853745564453600,2.60045361328125,0.24466495215892792,-0.2787620425224304,0.1335371732711792
1782853745574438700,2.610438720703125,0.2576395273208618,-0.2814216613769531,-0.03753339499235153
1782853745584422700,2.620422607421875,0.26548945903778076,-0.18990585207939148,-0.14054207503795624
1782853745594407700,2.63040771484375,0.26146793365478516,-0.03126797825098038,-0.18448421359062195
1782853745604391700,2.6403916015625,0.23932108283042908,0.11761604249477386,-0.1884256899356842
1782853745614376400,2.65037646484375,0.17920419573783875,0.23744551837444305,-0.18264563381671906
1782853745624361500,2.660361572265625,0.09533486515283585,0.29960182309150696,-0.2024792730808258
1782853745634345500,2.670345458984375,0.04491127282381058,0.3003879189491272,-0.25914379954338074
1782853745644330500,2.68033056640625,0.050237059593200684,0.3112078011035919,-0.3087550103664398
1782853745654314500,2.690314453125,0.09381572902202606,0.34119006991386414,-0.31096017360687256
1782853745664299800,2.7002998046875,0.16603027284145355,0.3983881175518036,-0.24851328134536743
1782853745674283500,2.710283447265625,0.2634088099002838,0.4350316524505615,-0.13476794958114624
1782853745684268800,2.720268798828125,0.37759530544281006,0.4206226170063019,-0.012358153238892555
1782853745694252800,2.730252685546875,0.4853210151195526,0.33766090869903564,0.0938865914940834
1782853745704237800,2.74023779296875,0.5856598615646362,0.1855725795030594,0.16965432465076447
1782853745714222600,2.75022265625,0.654725193977356,-0.04701569676399231,0.18351495265960693
1782853745724206600,2.76020654296875,0.6582021713256836,-0.3746076822280884,0.12229526787996292
1782853745734191600,2.770191650390625,0.5918248295783997,-0.7689733505249023,-0.014836427755653858
1782853745744175600,2.780175537109375,0.49952152371406555,-1.116679310798645,-0.17976918816566467
1782853745754160600,2.79016064453125,0.4111999273300171,-1.3255878686904907,-0.3256901800632477
1782853745764144600,2.80014453125,0.335334450006485,-1.386993646621704,-0.43983566761016846
1782853745774129700,2.810129638671875,0.24606390297412872,-1.372201681137085,-0.49960529804229736
1782853745784114700,2.82011474609375,0.1488872915506363,-1.2872653007507324,-0.4821155071258545
1782853745794098700,2.8300986328125,0.05474824458360672,-1.1256109476089478,-0.3690668046474457
1782853745804083700,2.840083740234375,0.00866197794675827,-0.8887405395507812,-0.1951807588338852
1782853745814067700,2.850067626953125,0.00898713432252407,-0.5973740220069885,-0.0007873023860156536
1782853745824052500,2.860052490234375,0.0477244108915329,-0.28266292810440063,0.1597222089767456
1782853745834036500,2.870036376953125,0.08042724430561066,0.011786598712205887,0.25327587127685547
1782853745844021500,2.880021484375,0.0915379524230957,0.1950770616531372,0.26330798864364624
1782853745854005500,2.890005615234375,0.08437460660934448,0.3343908488750458,0.20746785402297974
1782853745863990500,2.899990478515625,0.08245633542537689,0.5007516145706177,0.11701200157403946
1782853745873975600,2.9099755859375,0.10960671305656433,0.6268215775489807,0.019852174445986748
1782853745883959600,2.91995947265625,0.15075094997882843,0.6861498951911926,-0.05799468979239464
1782853745893944600,2.929944580078125,0.1979711949825287,0.6947438716888428,-0.08861402422189713
1782853745903928600,2.939928466796875,0.23587436974048615,0.6664027571678162,-0.04925969988107681
1782853745913913600,2.94991357421875,0.2659432888031006,0.619998574256897,0.04882756993174553
1782853745923897600,2.959897705078125,0.29007869958877563,0.5389479398727417,0.19070588052272797
1782853745933882600,2.969882568359375,0.31884804368019104,0.4432397484779358,0.3662058115005493
1782853745943867600,2.97986767578125,0.33699801564216614,0.34428998827934265,0.5513505935668945
1782853745953851600,2.9898515625,0.33752885460853577,0.23647540807724,0.7068033814430237
1782853745963836700,2.999836669921875,0.33041927218437195,0.1448184847831726,0.8148947358131409
1782853745973820700,3.009820556640625,0.3178098797798157,0.08434559404850006,0.8580694794654846
1782853745983805700,3.0198056640625,0.3124784827232361,0.03690857067704201,0.8310434818267822
1782853745993789700,3.029789794921875,0.31290629506111145,-0.01823114976286888,0.743941605091095
1782853746003774700,3.039774658203125,0.32126834988594055,-0.02880842611193657,0.6331703662872314
1782853746013759500,3.049759521484375,0.33845365047454834,-0.022680867463350296,0.5195198655128479
1782853746023743700,3.05974365234375,0.36192968487739563,-0.03213588893413544,0.39524051547050476
1782853746033728500,3.069728515625,0.3691469430923462,-0.09377460926771164,0.2522968649864197
1782853746043712500,3.07971240234375,0.35951271653175354,-0.1628093421459198,0.12040913105010986
1782853746053697500,3.089697509765625,0.3364942669868469,-0.2045341283082962,0.007453153841197491
1782853746063681500,3.099681640625,0.30461302399635315,-0.22909726202487946,-0.07324408739805222
1782853746073666600,3.10966650390625,0.2799830138683319,-0.25347021222114563,-0.12204693257808685
1782853746083650600,3.119650634765625,0.259353905916214,-0.3023184537887573,-0.12651439011096954
1782853746093635600,3.129635498046875,0.23848102986812592,-0.3597370684146881,-0.09332273155450821
1782853746103620600,3.13962060546875,0.22409889101982117,-0.4337220788002014,-0.04543643444776535
1782853746113604600,3.1496044921875,0.20011739432811737,-0.5415144562721252,-0.02118505910038948
1782853746123589600,3.159589599609375,0.14477024972438812,-0.6544292569160461,-0.0660603865981102
1782853746133573600,3.16957373046875,0.04401868209242821,-0.7314274311065674,-0.18998071551322937
1782853746143558400,3.179558349609375,-0.08220263570547104,-0.7476043105125427,-0.4023052155971527
1782853746153542400,3.18954248046875,-0.1989101618528366,-0.6558424234390259,-0.639788806438446
1782853746163527700,3.199527587890625,-0.2722802460193634,-0.4602242410182953,-0.8689985275268555
1782853746173512700,3.2095126953125,-0.29454633593559265,-0.18682731688022614,-1.0533496141433716
1782853746183496700,3.21949658203125,-0.304231196641922,0.09756205976009369,-1.1639045476913452
1782853746193481700,3.229481689453125,-0.33555471897125244,0.33023691177368164,-1.1825237274169922
1782853746203465700,3.2394658203125,-0.4044448435306549,0.4629632532596588,-1.1097970008850098
1782853746213450800,3.24945068359375,-0.48212769627571106,0.46593350172042847,-0.9617558121681213
1782853746223434800,3.259434814453125,-0.5608754754066467,0.40948939323425293,-0.7694116830825806
1782853746233419800,3.269419677734375,-0.6211968660354614,0.36012983322143555,-0.5458371639251709
1782853746243404500,3.279404541015625,-0.6502735614776611,0.3607548773288727,-0.31020864844322205
1782853746253388500,3.289388427734375,-0.6510067582130432,0.38907143473625183,-0.09981153160333633
1782853746263373600,3.29937353515625,-0.6231666207313538,0.41121429204940796,0.06647837162017822
1782853746273357600,3.309357666015625,-0.5717079639434814,0.4216025173664093,0.16921764612197876
1782853746283342600,3.319342529296875,-0.5323504209518433,0.38980090618133545,0.21060344576835632
1782853746293326600,3.32932666015625,-0.5127233862876892,0.290534645318985,0.16952429711818695
1782853746303311600,3.3393115234375,-0.5279691815376282,0.12936732172966003,0.05439770594239235
1782853746313296600,3.349296630859375,-0.5642329454421997,-0.05542576313018799,-0.09325158596038818
1782853746323280600,3.35928076171875,-0.6203486919403076,-0.2165035903453827,-0.2231840193271637
1782853746333265700,3.369265625,-0.6924058198928833,-0.3262675702571869,-0.3189898133277893
1782853746343249700,3.379249755859375,-0.7726937532424927,-0.3606953024864197,-0.3710058629512787
1782853746353234400,3.389234375,-0.8372922539710999,-0.3400859236717224,-0.38879716396331787
1782853746363218400,3.399218505859375,-0.8795661926269531,-0.2919314503669739,-0.3618457019329071
1782853746373203500,3.409203369140625,-0.8973347544670105,-0.22307969629764557,-0.2845669388771057
1782853746383187500,3.4191875,-0.8934369087219238,-0.11722436547279358,-0.16887739300727844
1782853746393172500,3.42917236328125,-0.8685622811317444,-0.007386154495179653,-0.027782348915934563
1782853746403157800,3.43915771484375,-0.827646791934967,0.11395598202943802,0.10472802817821503
1782853746413141800,3.449141845703125,-0.7739744782447815,0.2409587800502777,0.20654703676700592
1782853746423126800,3.459126708984375,-0.707585334777832,0.34953105449676514,0.26187074184417725
1782853746433110800,3.46911083984375,-0.6340360045433044,0.4112004041671753,0.27627304196357727
1782853746443095800,3.479095703125,-0.5584887862205505,0.43280157446861267,0.26157718896865845
1782853746453079800,3.489079833984375,-0.4847414195537567,0.4142892360687256,0.24090011417865753
1782853746463064600,3.499064697265625,-0.42261040210723877,0.3640021085739136,0.22307531535625458
1782853746473049600,3.509049560546875,-0.3719756007194519,0.28187096118927,0.22219805419445038
1782853746483033600,3.51903369140625,-0.33715927600860596,0.15417000651359558,0.2442258596420288
1782853746493018600,3.5290185546875,-0.32147809863090515,0.044503103941679,0.2957790791988373
1782853746503002600,3.539002685546875,-0.31401965022087097,-0.021308932453393936,0.36286333203315735
1782853746512987600,3.548987548828125,-0.3058290183544159,-0.06430390477180481,0.43202823400497437
1782853746522971600,3.5589716796875,-0.29799240827560425,-0.09764908254146576,0.4835667908191681
1782853746532956700,3.568956787109375,-0.30008354783058167,-0.08989061415195465,0.5282036066055298
1782853746542940700,3.578940673828125,-0.3068349361419678,-0.056455161422491074,0.541025698184967
1782853746552925700,3.58892578125,-0.31864580512046814,-0.041326988488435745,0.5086467862129211
1782853746562910500,3.598910400390625,-0.3324663043022156,-0.046803779900074005,0.4425891935825348
1782853746572894500,3.60889453125,-0.3220224976539612,-0.04646669328212738,0.34950414299964905
1782853746582879500,3.61887939453125,-0.2780896723270416,-0.03418445959687233,0.2528846561908722
1782853746592863500,3.628863525390625,-0.20120655000209808,0.002800682559609413,0.19183769822120667
1782853746602848500,3.6388486328125,-0.12091038376092911,0.044273290783166885,0.17634156346321106
1782853746612832500,3.64883251953125,-0.06284847855567932,0.05998215079307556,0.19497211277484894
1782853746622817500,3.658817626953125,-0.035733502358198166,0.08389867097139359,0.2524804174900055
1782853746632802800,3.668802734375,-0.022322598844766617,0.12733493745326996,0.33276644349098206
1782853746642786600,3.67878662109375,-0.02601161040365696,0.17589128017425537,0.4008301794528961
1782853746652771600,3.688771484375,-0.044616974890232086,0.22029322385787964,0.42517057061195374
1782853746662755800,3.698755859375,-0.07297031581401825,0.22006897628307343,0.3901473581790924
1782853746672740600,3.70874072265625,-0.11560430377721786,0.19268067181110382,0.3082132339477539
1782853746682724600,3.718724609375,-0.15192370116710663,0.1516549438238144,0.19729496538639069
1782853746692709600,3.728709716796875,-0.1557306945323944,0.08554942905902863,0.06761126965284348
1782853746702694700,3.738694580078125,-0.13098566234111786,0.035485729575157166,-0.06743256747722626
1782853746712678700,3.7486787109375,-0.08329426497220993,0.06498207151889801,-0.18631859123706818
1782853746722663700,3.75866357421875,-0.01678847335278988,0.16295070946216583,-0.2727251350879669
1782853746732647700,3.768647705078125,0.03879213333129883,0.2674415409564972,-0.33784377574920654
1782853746742632700,3.7786328125,0.06690286099910736,0.32541829347610474,-0.40832674503326416
1782853746752616700,3.78861669921875,0.060023464262485504,0.31191855669021606,-0.49613556265830994
1782853746762601700,3.798601806640625,0.04027879238128662,0.2599605619907379,-0.5831168293952942
1782853746772585700,3.808585693359375,0.009086959064006805,0.2164812833070755,-0.6492756009101868
1782853746782570500,3.818570556640625,-0.01849566586315632,0.20970220863819122,-0.6930838227272034
1782853746792555500,3.828555419921875,-0.03001267835497856,0.2296699583530426,-0.7030460834503174
1782853746802539500,3.83853955078125,-0.017707008868455887,0.2483416348695755,-0.6579174399375916
1782853746812524500,3.848524658203125,0.005719628185033798,0.2609017789363861,-0.563821017742157
1782853746822508500,3.858508544921875,0.02150711417198181,0.2609822154045105,-0.45476460456848145
1782853746832493600,3.86849365234375,0.030193917453289032,0.22066131234169006,-0.38792547583580017
1782853746842477600,3.8784775390625,0.04882512241601944,0.09857054799795151,-0.3892759680747986
1782853746852462600,3.888462646484375,0.06559499353170395,-0.0554109662771225,-0.44884175062179565
1782853746862447600,3.898447509765625,0.07553045451641083,-0.1970866173505783,-0.5430777072906494
1782853746872431600,3.908431640625,0.08192973583936691,-0.3139359652996063,-0.642529308795929
1782853746882416600,3.918416748046875,0.11077550053596497,-0.40447065234184265,-0.6935045719146729
1782853746892400400,3.928400390625,0.149789959192276,-0.45328816771507263,-0.6655930876731873
1782853746902385700,3.9383857421875,0.19317497313022614,-0.4686830937862396,-0.546748697757721
1782853746912369700,3.94836962890625,0.23248139023780823,-0.4674552083015442,-0.3560135066509247
1782853746922354700,3.958354736328125,0.2579880952835083,-0.4284074008464813,-0.12713530659675598
1782853746932338700,3.968338623046875,0.2826375663280487,-0.3493969440460205,0.08951056003570557
1782853746942323700,3.97832373046875,0.31691938638687134,-0.22940820455551147,0.258454293012619
1782853746952308700,3.988308837890625,0.36424195766448975,-0.10566794872283936,0.34521153569221497
1782853746962289700,3.99828955078125,0.4140491783618927,-0.024122223258018494,0.35989007353782654
1782853746972274400,4.0082744140625,0.45118993520736694,0.048753563314676285,0.32166287302970886
1782853746982258400,4.018258544921875,0.4673057794570923,0.10513241589069366,0.2611505091190338
1782853746992243500,4.028243408203125,0.4763813018798828,0.15199047327041626,0.1958061307668686
1782853747002227500,4.0382275390625,0.4874013662338257,0.1933342069387436,0.1400299370288849
1782853747012212500,4.04821240234375,0.5002931952476501,0.20935437083244324,0.11532548069953918
1782853747022196500,4.058196533203125,0.530121386051178,0.23039308190345764,0.13312871754169464
1782853747032181500,4.068181396484375,0.553343653678894,0.2478981912136078,0.2057207226753235
1782853747042165500,4.07816552734375,0.5695883631706238,0.28152725100517273,0.3025343418121338
1782853747052150800,4.08815087890625,0.573225736618042,0.2560265064239502,0.40003958344459534
1782853747062135800,4.0981357421875,0.5736108422279358,0.16582605242729187,0.46288326382637024
1782853747072119800,4.108119873046875,0.5769435167312622,0.04486794397234917,0.49365952610969543
1782853747082104600,4.1181044921875,0.5850794911384583,-0.08982301503419876,0.4946828782558441
1782853747092088600,4.128088623046875,0.5967217087745667,-0.24625766277313232,0.48888230323791504
1782853747102073600,4.138073486328125,0.6206890940666199,-0.4093776345252991,0.5068628787994385
1782853747112057600,4.1480576171875,0.6403501629829407,-0.5103694200515747,0.5784968733787537
1782853747122042600,4.158042724609375,0.6456253528594971,-0.5447715520858765,0.6748790740966797
1782853747132027600,4.168027587890625,0.6394478678703308,-0.5545746088027954,0.7565996646881104
1782853747142011600,4.17801171875,0.6206555366516113,-0.5720524191856384,0.7748982310295105
1782853747151996700,4.18799658203125,0.5981427431106567,-0.6142969131469727,0.7226021885871887
1782853747161980700,4.197980712890625,0.579155445098877,-0.6370291113853455,0.6041650772094727
1782853747171965700,4.207965576171875,0.5680720210075378,-0.6052135229110718,0.4704812169075012
1782853747181949700,4.21794970703125,0.573504626750946,-0.5414997935295105,0.34787753224372864
1782853747191934500,4.2279345703125,0.593630313873291,-0.45460957288742065,0.2755930721759796
1782853747201918700,4.237918701171875,0.6045194864273071,-0.3582875728607178,0.2817191481590271
1782853747211903500,4.247903564453125,0.602436363697052,-0.2593711018562317,0.3561289310455322
1782853747221888500,4.257888427734375,0.5980400443077087,-0.14468583464622498,0.4603624641895294
1782853747231872500,4.26787255859375,0.603980302810669,-0.06265867501497269,0.520793616771698
1782853747241857500,4.277857421875,0.6208386421203613,-0.08130186796188354,0.506604015827179
1782853747251841500,4.287841552734375,0.6161001324653625,-0.18077301979064941,0.4211094081401825
1782853747261826600,4.29782666015625,0.5645565390586853,-0.3047918975353241,0.28890398144721985
1782853747271810600,4.307810546875,0.453698068857193,-0.40236228704452515,0.12133990228176117
1782853747281795600,4.317795654296875,0.2893080413341522,-0.448103129863739,-0.06791870296001434
1782853747291780600,4.327780517578125,0.08841250091791153,-0.4197104275226593,-0.27487021684646606
1782853747301764600,4.3377646484375,-0.10771679133176804,-0.3249692916870117,-0.4742370843887329
1782853747311749600,4.34774951171875,-0.28084489703178406,-0.18693237006664276,-0.648931622505188
1782853747321733600,4.357733642578125,-0.4383096396923065,0.012096572667360306,-0.7824282050132751
1782853747331718700,4.36771875,-0.5763782858848572,0.2283913493156433,-0.8665981292724609
1782853747341702700,4.37770263671875,-0.6944268941879272,0.42317256331443787,-0.8932777047157288
1782853747351687700,4.387687744140625,-0.7770370841026306,0.5794947743415833,-0.8702585101127625
1782853747361672700,4.397672607421875,-0.8130725622177124,0.6976962685585022,-0.7977597713470459
1782853747371656700,4.40765673828125,-0.8106927871704102,0.7695749998092651,-0.6887600421905518
1782853747381641700,4.417641845703125,-0.7847259044647217,0.8119683265686035,-0.554134726524353
1782853747391625700,4.427625732421875,-0.7345354557037354,0.8267360925674438,-0.41075894236564636
1782853747401610500,4.437610595703125,-0.684437096118927,0.7856675386428833,-0.28977811336517334
1782853747411594800,4.4475947265625,-0.6427946090698242,0.6623293161392212,-0.1931767612695694
1782853747421579800,4.457579833984375,-0.6103456020355225,0.46901753544807434,-0.1422116905450821
1782853747431563800,4.467563720703125,-0.5872213244438171,0.24983617663383484,-0.11575610190629959
1782853747441548800,4.477548828125,-0.5707517862319946,0.0776519775390625,-0.0934755802154541
1782853747451533800,4.487533935546875,-0.5639098286628723,0.0021718619391322136,-0.05699027329683304
1782853747461517800,4.497517822265625,-0.5627769827842712,-0.012080083601176739,0.008386273868381977
1782853747471502800,4.5075029296875,-0.5739535093307495,0.020586784929037094,0.08127832412719727
1782853747481486800,4.51748681640625,-0.5893866419792175,0.07518580555915833,0.17029494047164917
1782853747491472000,4.527471923828125,-0.6061093807220459,0.14581042528152466,0.24880865216255188
1782853747501456000,4.537455810546875,-0.6133166551589966,0.24288833141326904,0.3003585934638977
1782853747511440600,4.547440673828125,-0.6039705872535706,0.3406093120574951,0.31910085678100586
1782853747521425000,4.5574248046875,-0.5949117541313171,0.43437838554382324,0.30083703994750977
1782853747531409700,4.56740966796875,-0.5968337655067444,0.5558022260665894,0.26276105642318726
1782853747541394700,4.577394775390625,-0.6019087433815002,0.6674878597259521,0.20113857090473175
1782853747551378700,4.587378662109375,-0.5995281338691711,0.7641411423683167,0.11995983868837357
1782853747561363700,4.59736376953125,-0.5846380591392517,0.8249094486236572,0.03612906485795975
1782853747571347700,4.60734765625,-0.5621402263641357,0.8586497902870178,-0.060164183378219604
1782853747581332700,4.617332763671875,-0.5194630026817322,0.8741898536682129,-0.15309496223926544
1782853747591316700,4.627316650390625,-0.46531030535697937,0.8376973867416382,-0.24112549424171448
1782853747601301800,4.6373017578125,-0.41102734208106995,0.7424069046974182,-0.3167390525341034
1782853747611286500,4.64728662109375,-0.35591644048690796,0.5659738183021545,-0.3575330972671509
1782853747621270800,4.657270751953125,-0.29937148094177246,0.33468443155288696,-0.3471315801143646
1782853747631255600,4.667255615234375,-0.25102418661117554,0.0648966133594513,-0.27731016278266907
1782853747641239600,4.677239501953125,-0.20666339993476868,-0.19983676075935364,-0.1626635491847992
1782853747651224800,4.687224853515625,-0.16471461951732635,-0.4095897078514099,-0.02177833765745163
1782853747661208600,4.69720849609375,-0.13418543338775635,-0.5421676635742188,0.12243667989969254
1782853747671193900,4.70719384765625,-0.1116260513663292,-0.600136935710907,0.251952588558197
1782853747681179000,4.717178955078125,-0.09369049966335297,-0.5756450891494751,0.35371944308280945
1782853747691163000,4.727162841796875,-0.07076521217823029,-0.47011786699295044,0.4217778742313385
1782853747701148000,4.73714794921875,-0.02246389538049698,-0.3389430046081543,0.46486058831214905
1782853747711132000,4.7471318359375,0.029246170073747635,-0.24221564829349518,0.4751206636428833
1782853747721116700,4.75711669921875,0.07490195333957672,-0.15723919868469238,0.46324819326400757
1782853747731100700,4.7671005859375,0.10901810973882675,-0.08954618126153946,0.43508899211883545
1782853747741085700,4.777085693359375,0.13177405297756195,-0.03355725109577179,0.40497997403144836
1782853747751069700,4.787069580078125,0.1423872858285904,0.02156165987253189,0.37461090087890625
1782853747761054700,4.7970546875,0.15186497569084167,0.042903147637844086,0.3491804301738739
1782853747771039700,4.807039794921875,0.15450842678546906,-0.005297936499118805,0.3151300549507141
1782853747781023700,4.817023681640625,0.13739997148513794,-0.11514390259981155,0.2763640582561493
1782853747791008800,4.8270087890625,0.1073232889175415,-0.2730267345905304,0.2474682331085205
1782853747800992800,4.83699267578125,0.07205194234848022,-0.4522978365421295,0.22686052322387695
1782853747810977800,4.846977783203125,0.024921445176005363,-0.6236525774002075,0.21691761910915375
1782853747820961800,4.8569619140625,-0.027819309383630753,-0.7583410739898682,0.19618290662765503
1782853747830946600,4.866946533203125,-0.06790467351675034,-0.8274948596954346,0.1823674887418747
1782853747840931600,4.876931640625,-0.08515022695064545,-0.7712286114692688,0.16979949176311493
1782853747850915600,4.88691552734375,-0.08657368272542953,-0.590844988822937,0.16484840214252472
1782853747860900600,4.896900634765625,-0.0696064680814743,-0.2918860614299774,0.16180382668972015
1782853747870884600,4.906884521484375,-0.05567547678947449,0.016656063497066498,0.14904622733592987
1782853747880869600,4.91686962890625,-0.07609076052904129,0.2791481614112854,0.08711966127157211
1782853747890853600,4.926853515625,-0.12114745378494263,0.4114721119403839,-0.023338671773672104
1782853747900839000,4.9368388671875,-0.14485912024974823,0.43128693103790283,-0.1600690484046936
1782853747910822700,4.94682275390625,-0.1446354240179062,0.40650248527526855,-0.2807177007198334
1782853747920808000,4.956807861328125,-0.11648526042699814,0.3807014226913452,-0.3505856394767761
1782853747930792700,4.966792724609375,-0.06618720293045044,0.3443436622619629,-0.35267409682273865
1782853747940776700,4.976776611328125,-0.010691434144973755,0.276457816362381,-0.3026622533798218
1782853747950761700,4.98676171875,0.03316124156117439,0.1880914866924286,-0.21722058951854706
1782853747960745700,4.996745849609375,0.05924786627292633,0.08173146098852158,-0.12847395241260529
1782853747970730800,5.006730712890625,0.08482246100902557,-0.049866776913404465,-0.06295432150363922
1782853747980714800,5.01671484375,0.10119620710611343,-0.18904101848602295,-0.03567998856306076
1782853747990699800,5.02669970703125,0.10726528614759445,-0.32399216294288635,-0.05259079486131668
1782853748000683800,5.036683837890625,0.10180581361055374,-0.44310081005096436,-0.11148465424776077
1782853748010668800,5.046668701171875,0.08253251761198044,-0.5343942046165466,-0.20552699267864227
1782853748020653800,5.05665380859375,0.056288301944732666,-0.58749920129776,-0.312552809715271
1782853748030637800,5.066637939453125,0.03495052084326744,-0.6100836396217346,-0.42473873496055603
1782853748040622600,5.07662255859375,0.01882804185152054,-0.6116002202033997,-0.5053339004516602
1782853748050606800,5.08660693359375,0.016262352466583252,-0.597754180431366,-0.5460456609725952
1782853748060591600,5.096591552734375,0.02850549854338169,-0.5672062635421753,-0.5326593518257141
1782853748070575600,5.10657568359375,0.06021309643983841,-0.5331196188926697,-0.4526941776275635
1782853748080560600,5.116560546875,0.09894923120737076,-0.48693355917930603,-0.33091461658477783
1782853748090545700,5.126545654296875,0.14045806229114532,-0.44191333651542664,-0.18592733144760132
1782853748100529700,5.13652978515625,0.18022467195987701,-0.38553324341773987,-0.05402372032403946
1782853748110514700,5.1465146484375,0.22370584309101105,-0.3192724883556366,0.0466642752289772
1782853748120498700,5.156498779296875,0.2879748046398163,-0.23093804717063904,0.11493559181690216
1782853748130483700,5.166483642578125,0.3602586090564728,-0.1274113953113556,0.15671074390411377
1782853748140467700,5.1764677734375,0.4197111129760742,-0.02153167314827442,0.19180072844028473
1782853748150452700,5.18645263671875,0.4498266875743866,0.08829788863658905,0.22432564198970795
1782853748160437800,5.196437744140625,0.46062177419662476,0.19875790178775787,0.2455708533525467
1782853748170421800,5.206421875,0.4758273661136627,0.2894294857978821,0.2582206130027771
1782853748180406800,5.21640673828125,0.5005199313163757,0.3443087339401245,0.26913708448410034
1782853748190390800,5.226390869140625,0.518222987651825,0.36434102058410645,0.2933492362499237
1782853748200375800,5.236375732421875,0.5343610644340515,0.3326607942581177,0.3220275342464447
1782853748210359800,5.24635986328125,0.5436429977416992,0.2200857549905777,0.3621629774570465
1782853748220344800,5.2563447265625,0.53749680519104,0.06547801941633224,0.4047131836414337
1782853748230328800,5.266328857421875,0.515386164188385,-0.06674366444349289,0.45288416743278503
1782853748240313900,5.27631396484375,0.4743029475212097,-0.15905681252479553,0.48766371607780457
1782853748250298600,5.286298583984375,0.42559877038002014,-0.215230330824852,0.5056701898574829
1782853748260283000,5.296282958984375,0.38628873229026794,-0.2249661684036255,0.49064165353775024
1782853748270267600,5.306267578125,0.3567119240760803,-0.22175732254981995,0.4458693861961365
1782853748280251600,5.316251708984375,0.3373368978500366,-0.23133032023906708,0.389085978269577
1782853748290236700,5.326236572265625,0.33858272433280945,-0.19472862780094147,0.3384755551815033
1782853748300220700,5.336220703125,0.3574274182319641,-0.16052007675170898,0.2797739505767822
1782853748310205700,5.346205810546875,0.36756715178489685,-0.15986865758895874,0.23507225513458252
1782853748320190700,5.356190673828125,0.35152962803840637,-0.16826970875263214,0.20023247599601746
1782853748330174700,5.3661748046875,0.3136477768421173,-0.18538211286067963,0.16073299944400787
1782853748340159700,5.37615966796875,0.2775056064128876,-0.21255572140216827,0.09142950177192688
1782853748350143700,5.386143798828125,0.25120556354522705,-0.24539382755756378,-0.003705271054059267
1782853748360128800,5.396128662109375,0.2547045052051544,-0.2906278967857361,-0.11832699179649353
1782853748370112800,5.40611279296875,0.2519097626209259,-0.366695761680603,-0.22703242301940918
1782853748380097500,5.41609765625,0.2153192162513733,-0.43671196699142456,-0.3391563296318054
1782853748390081500,5.42608154296875,0.14661552011966705,-0.5013391375541687,-0.455144464969635
1782853748400066800,5.43606689453125,0.08369515836238861,-0.5267565250396729,-0.5757372975349426
1782853748410052400,5.44605224609375,0.05494740232825279,-0.5089452862739563,-0.6765350103378296
1782853748420036400,5.456036376953125,0.060364022850990295,-0.45081835985183716,-0.7481385469436646
1782853748430021400,5.466021484375,0.08827155083417892,-0.37439417839050293,-0.7728321552276611
1782853748440005400,5.47600537109375,0.10130622237920761,-0.2784651815891266,-0.75690758228302
1782853748449990400,5.485990478515625,0.05410115793347359,-0.16162538528442383,-0.7128162980079651
1782853748459974400,5.495974365234375,-0.025815101340413094,-0.08719170093536377,-0.6643867492675781
1782853748469959200,5.505959228515625,-0.10442762076854706,-0.050612922757864,-0.6194544434547424
1782853748479944200,5.515944091796875,-0.14390459656715393,0.003535681404173374,-0.5566039085388184
1782853748489928200,5.52592822265625,-0.15208636224269867,0.08649660646915436,-0.4552317261695862
1782853748499913200,5.535913330078125,-0.14660614728927612,0.17459532618522644,-0.31144851446151733
1782853748509897200,5.545897216796875,-0.1266777068376541,0.25025492906570435,-0.14464810490608215
1782853748519882200,5.55588232421875,-0.10833761096000671,0.29807373881340027,0.033175982534885406
1782853748529866200,5.5658662109375,-0.09521648287773132,0.30995115637779236,0.19087213277816772
1782853748539851300,5.575851318359375,-0.09740697592496872,0.25236788392066956,0.2880067229270935
1782853748549835300,5.585835205078125,-0.13791978359222412,0.14805559813976288,0.3013158440589905
1782853748559820300,5.5958203125,-0.2188396006822586,0.033166900277137756,0.23124314844608307
1782853748569805000,5.60580517578125,-0.3260565996170044,-0.05604926496744156,0.10086464136838913
1782853748579789000,5.6157890625,-0.4489700496196747,-0.06952240318059921,-0.05786770582199097
1782853748589774000,5.625774169921875,-0.5732185244560242,-0.013367787934839725,-0.21618597209453583
1782853748599758000,5.635758056640625,-0.6960221529006958,0.06018953397870064,-0.3601241111755371
1782853748609743400,5.645743408203125,-0.7821564674377441,0.12084755301475525,-0.4569326639175415
1782853748619727000,5.65572705078125,-0.8390262126922607,0.22104951739311218,-0.4886111319065094
1782853748629712400,5.66571240234375,-0.8636865615844727,0.33742856979370117,-0.4482967257499695
1782853748639696100,5.675696044921875,-0.8710216879844666,0.450169175863266,-0.35515764355659485
1782853748649681400,5.685681396484375,-0.8636490106582642,0.5627657771110535,-0.2395058572292328
1782853748659666200,5.695666259765625,-0.8413249850273132,0.676464319229126,-0.13935312628746033
1782853748669650400,5.705650390625,-0.7876745462417603,0.7689582705497742,-0.08199024200439453
1782853748679635200,5.71563525390625,-0.7150959372520447,0.8214932680130005,-0.0805148109793663
1782853748689619200,5.725619140625,-0.6415077447891235,0.8235223293304443,-0.12609347701072693
1782853748699604200,5.735604248046875,-0.570138692855835,0.7941486239433289,-0.1902114450931549
1782853748709588200,5.745588134765625,-0.5007066130638123,0.7096047401428223,-0.24076783657073975
1782853748719573200,5.7555732421875,-0.44716793298721313,0.6180119514465332,-0.25218528509140015
1782853748729558300,5.765558349609375,-0.41543716192245483,0.5095872282981873,-0.21011722087860107
1782853748739542300,5.775542236328125,-0.40722858905792236,0.37422820925712585,-0.1168593242764473
1782853748749527300,5.78552734375,-0.41368621587753296,0.22360782325267792,0.01139905210584402
1782853748759511300,5.79551123046875,-0.4257187247276306,0.05058031156659126,0.16389252245426178
1782853748769496300,5.805496337890625,-0.4510725736618042,-0.11129060387611389,0.31847116351127625
1782853748779480300,5.815480224609375,-0.4704556465148926,-0.25700461864471436,0.4642772376537323
1782853748789465000,5.825465087890625,-0.46743693947792053,-0.38466617465019226,0.587026834487915
1782853748799450000,5.8354501953125,-0.455239862203598,-0.47032129764556885,0.6754840612411499
1782853748809434000,5.84543408203125,-0.4263805150985718,-0.5209091305732727,0.7340962290763855
1782853748819419100,5.855419189453125,-0.3921996057033539,-0.55020672082901,0.7668084502220154
1782853748829403100,5.865403076171875,-0.34974855184555054,-0.5641329288482666,0.7921585440635681
1782853748839388200,5.87538818359375,-0.296823114156723,-0.5495656132698059,0.8140347003936768
1782853748849372200,5.8853720703125,-0.2442975789308548,-0.509727418422699,0.8385653495788574
1782853748859357400,5.895357421875,-0.1906316876411438,-0.38008856773376465,0.8681747913360596
1782853748869341200,5.905341064453125,-0.13844624161720276,-0.17518575489521027,0.909316897392273
1782853748879326500,5.915326416015625,-0.09442281723022461,0.03348726034164429,0.9210168719291687
1782853748889311200,5.925311279296875,-0.07471276074647903,0.20470507442951202,0.904931366443634
1782853748899295200,5.935295166015625,-0.07905843108892441,0.3066592812538147,0.8501741886138916
1782853748909280300,5.9452802734375,-0.08284357935190201,0.30743107199668884,0.7801820039749146
1782853748919264300,5.95526416015625,-0.10014863312244415,0.21590708196163177,0.7005358934402466
1782853748929249300,5.965249267578125,-0.12742285430431366,0.10685861855745316,0.6393308639526367
1782853748939233300,5.9752333984375,-0.15598686039447784,0.011274647898972034,0.5855000019073486
1782853748949218300,5.98521826171875,-0.17115595936775208,-0.08190882205963135,0.5175393223762512
1782853748959203300,5.995203369140625,-0.17060673236846924,-0.1735222190618515,0.42476290464401245
1782853748969187300,6.005187255859375,-0.14411360025405884,-0.19675883650779724,0.32720521092414856
1782853748979172400,6.01517236328125,-0.08803743869066238,-0.12068105489015579,0.24661000072956085
1782853748989156400,6.02515625,-0.011730954051017761,-0.006100677419453859,0.18180011212825775
1782853748999141000,6.03514111328125,0.041441820561885834,0.12565405666828156,0.12072647362947464
1782853749009125000,6.045125,0.04945793375372887,0.20675823092460632,0.03751759976148605
1782853749019110100,6.055110107421875,0.03727231174707413,0.22233591973781586,-0.07724808156490326
1782853749029094100,6.06509423828125,0.042378123849630356,0.1979573518037796,-0.19660431146621704
1782853749039079200,6.0750791015625,0.07545145601034164,0.19531036913394928,-0.28535497188568115
1782853749049064200,6.085064208984375,0.12537053227424622,0.1777324378490448,-0.3056408166885376
1782853749059048200,6.095048095703125,0.1694599986076355,0.17967601120471954,-0.2607440948486328
1782853749069033200,6.105033203125,0.19510971009731293,0.219411700963974,-0.17172475159168243
1782853749079017200,6.115017333984375,0.23463758826255798,0.2538624107837677,-0.08846904337406158
1782853749089002200,6.125002197265625,0.286532461643219,0.22853949666023254,-0.051044706255197525
1782853749098986200,6.134986328125,0.34757980704307556,0.14410744607448578,-0.077171191573143
1782853749108971300,6.14497119140625,0.3838704526424408,0.021603364497423172,-0.1558561474084854
1782853749118956300,6.154956298828125,0.3906717002391815,-0.11493988335132599,-0.28926217555999756
1782853749128940300,6.164940185546875,0.3760831654071808,-0.23349529504776,-0.43546736240386963
1782853749138925300,6.17492529296875,0.3753480613231659,-0.33140137791633606,-0.5509288311004639
1782853749148909300,6.184909423828125,0.37763625383377075,-0.38887664675712585,-0.6183539628982544
1782853749158894300,6.194894287109375,0.36180704832077026,-0.41978025436401367,-0.6357292532920837
1782853749168878300,6.20487841796875,0.3252362608909607,-0.4292379319667816,-0.6170045733451843
1782853749178863400,6.21486328125,0.30536872148513794,-0.4022187888622284,-0.5738038420677185
1782853749188848400,6.224848388671875,0.28434252738952637,-0.38009750843048096,-0.5269119739532471
1782853749198832400,6.234832275390625,0.2404177188873291,-0.36274853348731995,-0.5105217695236206
1782853749208817200,6.244817138671875,0.20251721143722534,-0.23583506047725677,-0.5170510411262512
1782853749218801200,6.25480126953125,0.18261700868606567,-0.09596091508865356,-0.5512226819992065
1782853749228786200,6.2647861328125,0.18668419122695923,0.014568518847227097,-0.6020892858505249
1782853749238770200,6.274770263671875,0.20670631527900696,0.07814960926771164,-0.6569321751594543
1782853749248755200,6.284755126953125,0.23912391066551208,0.11856520920991898,-0.6882584095001221
1782853749258739200,6.2947392578125,0.2936745584011078,0.1309473216533661,-0.6784695386886597
1782853749268724200,6.30472412109375,0.34585121273994446,0.13244695961475372,-0.6358046531677246
1782853749278709200,6.314709228515625,0.3813389539718628,0.10973979532718658,-0.5506119132041931
1782853749288693200,6.324693359375,0.3914722800254822,0.09699337184429169,-0.4434601366519928
1782853749298678300,6.33467822265625,0.40539008378982544,0.11930593103170395,-0.3169662654399872
1782853749308662300,6.344662353515625,0.41087034344673157,0.1584394872188568,-0.1896413415670395
1782853749318647000,6.35464697265625,0.39457881450653076,0.18162786960601807,-0.07264474034309387
1782853749328631000,6.364631103515625,0.3601337671279907,0.1586621105670929,0.024459710344672203
1782853749338616000,6.374615966796875,0.32195523381233215,0.09860820323228836,0.09502626210451126
1782853749348601300,6.384601318359375,0.3014262616634369,-0.0048556020483374596,0.13013552129268646
1782853749358585300,6.39458544921875,0.30036044120788574,-0.11539015918970108,0.14733368158340454
1782853749368570400,6.4045703125,0.30683112144470215,-0.21323709189891815,0.1523880958557129
1782853749378554400,6.414554443359375,0.3252442181110382,-0.2823956608772278,0.1671886146068573
1782853749388539400,6.424539306640625,0.3630107641220093,-0.28710412979125977,0.1935216784477234
1782853749398523400,6.4345234375,0.4286062717437744,-0.25898537039756775,0.23217633366584778
1782853749408508200,6.444508056640625,0.485985666513443,-0.22012081742286682,0.27719467878341675
1782853749418492200,6.4544921875,0.5205177664756775,-0.17103280127048492,0.31861281394958496
1782853749428477000,6.464476806640625,0.5277232527732849,-0.10964694619178772,0.3466572165489197
1782853749438462000,6.4744619140625,0.5158431529998779,-0.040647294372320175,0.3380623161792755
1782853749448446000,6.484446044921875,0.4784696698188782,-0.011928298510611057,0.2863234877586365
1782853749458431000,6.494430908203125,0.4137396514415741,-0.05932370573282242,0.1849142163991928
1782853749468415000,6.5044150390625,0.34675291180610657,-0.19071581959724426,0.06905579566955566
1782853749478400000,6.51439990234375,0.30934813618659973,-0.3733626902103424,-0.04041014611721039
1782853749488384000,6.524384033203125,0.29613885283470154,-0.5427056550979614,-0.11601249873638153
1782853749498369000,6.534369140625,0.29164567589759827,-0.6605067849159241,-0.16270487010478973
1782853749508354000,6.54435400390625,0.28529298305511475,-0.7261632680892944,-0.18827654421329498
1782853749518338000,6.554338134765625,0.27653658390045166,-0.7363677620887756,-0.23691809177398682
1782853749528322800,6.56432275390625,0.2529042363166809,-0.6688709855079651,-0.3066367506980896
1782853749538307000,6.57430712890625,0.2106519192457199,-0.5600394010543823,-0.4031805098056793
1782853749548291800,6.584291748046875,0.12177450954914093,-0.47628915309906006,-0.5422947406768799
1782853749558275800,6.59427587890625,-0.022972386330366135,-0.4126999080181122,-0.7097901105880737
1782853749568260900,6.6042607421875,-0.1942482590675354,-0.31490781903266907,-0.871073842048645
1782853749578246000,6.614245849609375,-0.3391047716140747,-0.20657511055469513,-0.9964062571525574
1782853749588230000,6.62422998046875,-0.42876383662223816,-0.09451781213283539,-1.0511512756347656
1782853749598215200,6.634215087890625,-0.4647340774536133,0.04446970671415329,-1.008939266204834
1782853749608199000,6.644198974609375,-0.44799718260765076,0.17842085659503937,-0.8739882707595825
1782853749618184200,6.65418408203125,-0.3861992061138153,0.29371461272239685,-0.6578953266143799
1782853749628168200,6.664168212890625,-0.2863791286945343,0.37080273032188416,-0.3947427570819855
1782853749638153000,6.674153076171875,-0.16503794491291046,0.39020416140556335,-0.11394642293453217
1782853749648137200,6.68413720703125,-0.0653907060623169,0.35671839118003845,0.14841756224632263
1782853749658122000,6.6941220703125,-0.017610937356948853,0.2816329598426819,0.37105435132980347
1782853749668107000,6.70410693359375,-0.004926302470266819,0.17982378602027893,0.5253944396972656
1782853749678091000,6.714091064453125,-0.020272687077522278,0.06952276080846786,0.6018649339675903
1782853749688076000,6.724075927734375,-0.06752435863018036,-0.011790740303695202,0.5898892879486084
1782853749698060000,6.73406005859375,-0.13265089690685272,-0.05873055011034012,0.5241227746009827
1782853749708045000,6.744045166015625,-0.19981715083122253,-0.060759879648685455,0.42015135288238525
1782853749718029000,6.754029052734375,-0.27218541502952576,-0.04013765603303909,0.32075297832489014
1782853749728014000,6.76401416015625,-0.33199387788772583,0.022139564156532288,0.24586783349514008
1782853749737998800,6.773998779296875,-0.3775128722190857,0.10722320526838303,0.20213833451271057
1782853749747983000,6.783983154296875,-0.40211406350135803,0.20732291042804718,0.16924403607845306
1782853749757968000,6.7939677734375,-0.3908696174621582,0.3338763415813446,0.15866877138614655
1782853749767952000,6.803951904296875,-0.3682210445404053,0.4670562446117401,0.16612643003463745
1782853749777937000,6.81393701171875,-0.34571579098701477,0.5800002813339233,0.17409907281398773
1782853749787921000,6.8239208984375,-0.32887208461761475,0.6787158846855164,0.1770125776529312
1782853749797906000,6.833906005859375,-0.31187665462493896,0.7755319476127625,0.16421568393707275
1782853749807890000,6.843889892578125,-0.27800124883651733,0.8419506549835205,0.12868645787239075
1782853749817875000,6.853875,-0.21918711066246033,0.8632221221923828,0.08222994953393936
1782853749827860000,6.86385986328125,-0.15350636839866638,0.8780165314674377,0.03064744547009468
1782853749837844000,6.873843994140625,-0.08688953518867493,0.8993304967880249,0.002177998423576355
1782853749847829000,6.8838291015625,-0.0485735759139061,1.3457807302474976,0.27303051948547363
1782853749857813000,6.89381298828125,-0.031897395849227905,1.043500542640686,0.473629355430603
1782853749867798000,6.903798095703125,-0.041105277836322784,0.4702615439891815,0.4947700500488281
1782853749877782000,6.913781982421875,-0.07245095819234848,-0.09458500891923904,0.4067586064338684
1782853749887767000,6.92376708984375,-0.0882221981883049,-0.4343162178993225,0.24267618358135223
1782853749897751000,6.9337509765625,-0.06277216225862503,-0.5578567385673523,0.07428092509508133
1782853749907736000,6.943736083984375,-0.05010164529085159,-0.5924429297447205,-0.07525850087404251
1782853749917721000,6.95372119140625,-0.08097974210977554,-0.5536804795265198,-0.19033434987068176
1782853749927705000,6.963705078125,-0.11891194432973862,-0.42663705348968506,-0.23181520402431488
1782853749937690000,6.973690185546875,-0.14865843951702118,-0.2858240008354187,-0.22736255824565887
1782853749947674000,6.983674072265625,-0.158050075173378,-0.2658947706222534,-0.20916889607906342
