time,seconds_elapsed,z,y,x
1782853724240882000,0.0838818359375,-0.3059031069278717,-0.08971669524908066,0.10667067021131516
1782853724250867000,0.093866943359375,-0.30305159091949463,-0.18774518370628357,0.2037254422903061
1782853724260851000,0.103850830078125,-0.30161774158477783,-0.25803104043006897,0.2787799835205078
1782853724270836200,0.113836181640625,-0.29044902324676514,-0.3187819719314575,0.3279707431793213
1782853724280820000,0.123820068359375,-0.2805007994174957,-0.3518877327442169,0.358438104391098
1782853724290805000,0.133804931640625,-0.28699085116386414,-0.3229281008243561,0.36946940422058105
1782853724300790000,0.1437900390625,-0.3130307197570801,-0.26573511958122253,0.3449651300907135
1782853724310774000,0.15377392578125,-0.3177061975002289,-0.20778164267539978,0.28873810172080994
1782853724320759000,0.163759033203125,-0.2878396511077881,-0.1401248276233673,0.2338476926088333
1782853724330743000,0.173742919921875,-0.22944633662700653,-0.0863507017493248,0.20575211942195892
1782853724340728000,0.18372802734375,-0.1796790510416031,-0.0745299905538559,0.20008571445941925
1782853724350713000,0.193713134765625,-0.14718957245349884,-0.048126209527254105,0.22650036215782166
1782853724360697000,0.203697021484375,-0.11052210628986359,0.0018599918112158775,0.2851748466491699
1782853724370682000,0.21368212890625,-0.061718087643384933,0.07676306366920471,0.35134074091911316
1782853724380666400,0.223666259765625,-0.004120835568755865,0.13177545368671417,0.4317309260368347
1782853724390651400,0.2336513671875,0.04262258857488632,0.16412529349327087,0.49982911348342896
1782853724400635400,0.243635498046875,0.068977490067482,0.18120227754116058,0.5497681498527527
1782853724410620400,0.253620361328125,0.08528201282024384,0.18216031789779663,0.5642418265342712
1782853724420605400,0.26360546875,0.09917226433753967,0.12412498891353607,0.5396483540534973
1782853724430589400,0.27358935546875,0.11368605494499207,-0.015518373809754848,0.46568191051483154
1782853724440574500,0.283574462890625,0.12038284540176392,-0.16572678089141846,0.37362176179885864
1782853724450558500,0.293558349609375,0.13303115963935852,-0.2762055993080139,0.2811139225959778
1782853724460543500,0.30354345703125,0.1423729956150055,-0.34387651085853577,0.2029021829366684
1782853724470527500,0.313527587890625,0.15186241269111633,-0.3418985903263092,0.1318627893924713
1782853724480512300,0.32351220703125,0.15885107219219208,-0.31543341279029846,0.0678102970123291
1782853724490497300,0.333497314453125,0.15090739727020264,-0.3043175935745239,-0.011622559279203415
1782853724500481300,0.343481201171875,0.12961170077323914,-0.2773514986038208,-0.0975063145160675
1782853724510466300,0.35346630859375,0.1273491084575653,-0.23394757509231567,-0.18548747897148132
1782853724520450300,0.3634501953125,0.1299009472131729,-0.2157784253358841,-0.2751484215259552
1782853724530435600,0.373435546875,0.12129298597574234,-0.18628525733947754,-0.33642688393592834
1782853724540420600,0.383420654296875,0.1100536435842514,-0.09892025589942932,-0.3585710823535919
1782853724550404600,0.393404541015625,0.09907136112451553,0.009023349732160568,-0.3627391457557678
1782853724560389600,0.4033896484375,0.08965921401977539,0.08716554939746857,-0.38559597730636597
1782853724570373600,0.41337353515625,0.09298419952392578,0.12248624861240387,-0.42748451232910156
1782853724580358400,0.4233583984375,0.11661522090435028,0.11819297075271606,-0.45843231678009033
1782853724590342400,0.43334228515625,0.1542007178068161,0.06072913110256195,-0.46429330110549927
1782853724600327400,0.443327392578125,0.18410667777061462,0.008398815058171749,-0.43265679478645325
1782853724610312400,0.4533125,0.22516828775405884,-0.021481886506080627,-0.360302597284317
1782853724620296400,0.46329638671875,0.2783556282520294,-0.054697632789611816,-0.2704158425331116
1782853724630281500,0.473281494140625,0.3504336178302765,-0.09604783356189728,-0.16809669137001038
1782853724640265500,0.483265380859375,0.42008352279663086,-0.131151482462883,-0.07145217806100845
1782853724650250500,0.49325048828125,0.4766295254230499,-0.15626205503940582,0.016843821853399277
1782853724660234500,0.503234375,0.5199692845344543,-0.15983521938323975,0.08651930093765259
1782853724670219500,0.513219482421875,0.5413841009140015,-0.16106103360652924,0.12966178357601166
1782853724680204300,0.523204345703125,0.5331884622573853,-0.14681097865104675,0.15870729088783264
1782853724690188300,0.533188232421875,0.49660176038742065,-0.08888613432645798,0.17045648396015167
1782853724700173300,0.54317333984375,0.44540300965309143,-0.0014702687039971352,0.15341198444366455
1782853724710157300,0.5531572265625,0.39649900794029236,0.09148629754781723,0.1087385043501854
1782853724720142300,0.563142333984375,0.34856611490249634,0.19664040207862854,0.047243986278772354
1782853724730126300,0.573126220703125,0.3078347444534302,0.31560948491096497,-0.0174011941999197
1782853724740111400,0.583111328125,0.27467307448387146,0.4328839182853699,-0.08445373177528381
1782853724750096600,0.5930966796875,0.2529274821281433,0.4974634647369385,-0.13680735230445862
1782853724760080400,0.603080322265625,0.25138312578201294,0.4592079520225525,-0.1749882996082306
1782853724770065700,0.613065673828125,0.25357893109321594,0.35857775807380676,-0.17978031933307648
1782853724780049700,0.623049560546875,0.2524433434009552,0.26490986347198486,-0.14705193042755127
1782853724790034400,0.633034423828125,0.2538367807865143,0.18202365934848785,-0.10215294361114502
1782853724800018400,0.643018310546875,0.2533307671546936,0.08736345916986465,-0.04924391955137253
1782853724810003500,0.65300341796875,0.2544878125190735,-0.002303861081600189,-0.0075720506720244884
1782853724819988500,0.662988525390625,0.25355809926986694,-0.08814553171396255,0.023950722068548203
1782853724829972500,0.672972412109375,0.2397291660308838,-0.15238305926322937,0.04916132986545563
1782853724839957500,0.68295751953125,0.2322387546300888,-0.2016613930463791,0.07837541401386261
1782853724849941500,0.69294140625,0.22690707445144653,-0.21665018796920776,0.12690958380699158
1782853724859926500,0.702926513671875,0.22679868340492249,-0.1874651461839676,0.18739663064479828
1782853724869911600,0.71291162109375,0.22472138702869415,-0.1322372853755951,0.2362876683473587
1782853724879895600,0.7228955078125,0.2193756252527237,-0.0958651676774025,0.24824713170528412
1782853724889880300,0.73288037109375,0.19229209423065186,-0.10564762353897095,0.2166571468114853
1782853724899864300,0.7428642578125,0.14761969447135925,-0.05502546578645706,0.1820451021194458
1782853724909849300,0.752849365234375,0.12482567131519318,-0.04008764028549194,0.1369013488292694
1782853724919833300,0.762833251953125,0.1258659064769745,-0.11902240663766861,0.09558267146348953
1782853724929818400,0.772818359375,0.14520932734012604,-0.21952368319034576,0.06609530001878738
1782853724939803400,0.782803466796875,0.1701330542564392,-0.28384464979171753,0.06797948479652405
1782853724949787400,0.792787353515625,0.1800849735736847,-0.29718318581581116,0.06585723161697388
1782853724959772400,0.8027724609375,0.17758001387119293,-0.30458864569664,0.02954956144094467
1782853724969756400,0.81275634765625,0.169997438788414,-0.350483238697052,-0.06263681501150131
1782853724979741700,0.82274169921875,0.16396565735340118,-0.4019618630409241,-0.1914568394422531
1782853724989725400,0.832725341796875,0.15631094574928284,-0.42387765645980835,-0.3367755115032196
1782853724999710500,0.84271044921875,0.12746651470661163,-0.43764781951904297,-0.5024113655090332
1782853725009695500,0.852695556640625,0.05812878906726837,-0.5081523060798645,-0.7064748406410217
1782853725019679500,0.862679443359375,-0.09151875972747803,-0.5910037755966187,-0.9431459903717041
1782853725029664500,0.87266455078125,-0.32816362380981445,-0.599942147731781,-1.2088241577148438
1782853725039648500,0.8826484375,-0.5713698863983154,-0.5163625478744507,-1.4574952125549316
1782853725049633500,0.892633544921875,-0.768842875957489,-0.3345649540424347,-1.6613798141479492
1782853725059617500,0.902617431640625,-0.9055807590484619,-0.10944262146949768,-1.7877092361450195
1782853725069602600,0.9126025390625,-0.9625539183616638,0.07855776697397232,-1.8270312547683716
1782853725079587600,0.922587646484375,-0.9342130422592163,0.188519686460495,-1.7719781398773193
1782853725089571600,0.932571533203125,-0.8267276883125305,0.16855388879776,-1.6147279739379883
1782853725099556400,0.942556396484375,-0.6782151460647583,0.06149987876415253,-1.3496947288513184
1782853725109540400,0.952540283203125,-0.5414581894874573,-0.02884143963456154,-0.9853607416152954
1782853725119525400,0.962525390625,-0.45026758313179016,-0.03443940356373787,-0.5761138200759888
1782853725129510400,0.972510498046875,-0.39893895387649536,0.05611596629023552,-0.17445603013038635
1782853725139494400,0.982494384765625,-0.37513136863708496,0.19244346022605896,0.14528842270374298
1782853725149479400,0.9924794921875,-0.3689693808555603,0.3126472234725952,0.3757651150226593
1782853725159463400,1.00246337890625,-0.36574214696884155,0.3996298015117645,0.5057896971702576
1782853725169448400,1.012448486328125,-0.3686615228652954,0.47983023524284363,0.5610769987106323
1782853725179432400,1.022432373046875,-0.37657085061073303,0.5490700602531433,0.5690294504165649
1782853725189417500,1.03241748046875,-0.41243210434913635,0.5774907469749451,0.5638149976730347
1782853725199402500,1.042402587890625,-0.4721183478832245,0.5738049149513245,0.543849766254425
1782853725209386200,1.05238623046875,-0.5401334166526794,0.5397709608078003,0.5168881416320801
1782853725219371500,1.06237158203125,-0.5951545834541321,0.5361341834068298,0.5008066296577454
1782853725229355500,1.07235546875,-0.6331796050071716,0.5637993812561035,0.4906807541847229
1782853725239340500,1.082340576171875,-0.6568614840507507,0.603808581829071,0.4832020699977875
1782853725249324500,1.092324462890625,-0.664513885974884,0.6752227544784546,0.4676455855369568
1782853725259309600,1.1023095703125,-0.6360337734222412,0.7703330516815186,0.45597800612449646
1782853725269294600,1.112294677734375,-0.5710908770561218,0.8779587149620056,0.45528310537338257
1782853725279278600,1.122278564453125,-0.4828971028327942,0.9590466618537903,0.4565289318561554
1782853725289263400,1.132263427734375,-0.3839852213859558,0.9908255934715271,0.47724074125289917
1782853725299247600,1.14224755859375,-0.2987004220485687,1.0085047483444214,0.5141865015029907
1782853725309232400,1.152232421875,-0.22339695692062378,0.9983810186386108,0.5659191012382507
1782853725319217400,1.162217529296875,-0.16025526821613312,0.9371642470359802,0.6283689141273499
1782853725329201400,1.172201416015625,-0.11992257088422775,0.8404057621955872,0.7066043615341187
1782853725339186400,1.1821865234375,-0.10264291614294052,0.7201158404350281,0.7799184918403625
1782853725349170400,1.19217041015625,-0.09834666550159454,0.5588931441307068,0.8513312339782715
1782853725359155500,1.202155517578125,-0.09673304855823517,0.35358715057373047,0.9266523122787476
1782853725369139500,1.212139404296875,-0.08572486788034439,0.19148942828178406,1.0030932426452637
1782853725379124500,1.22212451171875,-0.07155551761388779,0.11522608995437622,1.060858964920044
1782853725389109500,1.232109619140625,-0.04972607269883156,0.06009896844625473,1.075764775276184
1782853725399093500,1.242093505859375,-0.03487042710185051,-0.049082644283771515,1.04655921459198
1782853725409078500,1.25207861328125,-0.029446933418512344,-0.18644574284553528,0.9893829226493835
1782853725419062500,1.2620625,-0.057316381484270096,-0.3198096752166748,0.9243751764297485
1782853725429047600,1.272047607421875,-0.10364411026239395,-0.4292854070663452,0.8684373497962952
1782853725439031600,1.282031494140625,-0.1524667888879776,-0.5409330725669861,0.8049832582473755
1782853725449016600,1.2920166015625,-0.20420369505882263,-0.629862368106842,0.7411720156669617
1782853725459001600,1.302001708984375,-0.25448548793792725,-0.6532737016677856,0.6697494983673096
1782853725468985600,1.311985595703125,-0.29711318016052246,-0.603782057762146,0.5675840377807617
1782853725478970600,1.321970703125,-0.3233509063720703,-0.5376102328300476,0.43856000900268555
1782853725488954600,1.33195458984375,-0.31943854689598083,-0.46983271837234497,0.2888413071632385
1782853725498939400,1.341939453125,-0.2867429256439209,-0.41939032077789307,0.14176824688911438
1782853725508923600,1.351923583984375,-0.22982296347618103,-0.41693824529647827,0.004776602610945702
1782853725518908400,1.361908447265625,-0.1574861705303192,-0.45176759362220764,-0.12632283568382263
1782853725528893400,1.3718935546875,-0.09036232531070709,-0.475942999124527,-0.2600705325603485
1782853725538877400,1.38187744140625,-0.04738742858171463,-0.4476053714752197,-0.39007192850112915
1782853725548862700,1.39186279296875,-0.04617125913500786,-0.3775438964366913,-0.5115645527839661
1782853725558846500,1.401846435546875,-0.08693386614322662,-0.260635107755661,-0.6298555135726929
1782853725568831700,1.411831787109375,-0.14697815477848053,-0.09435772895812988,-0.7429839372634888
1782853725578815700,1.421815673828125,-0.19051018357276917,0.06629106402397156,-0.8518779873847961
1782853725588800800,1.43180078125,-0.1962081789970398,0.1540067493915558,-0.9272059798240662
1782853725598785500,1.44178564453125,-0.1663147360086441,0.17289869487285614,-0.9441705942153931
1782853725608769500,1.45176953125,-0.11989375203847885,0.17051216959953308,-0.899331271648407
1782853725618754600,1.461754638671875,-0.05802132561802864,0.11352958530187607,-0.830661952495575
1782853725628738600,1.471738525390625,0.029982317239046097,0.022083351388573647,-0.7460041046142578
1782853725638723600,1.4817236328125,0.1326197385787964,-0.04702035337686539,-0.6302044987678528
1782853725648707600,1.49170751953125,0.24455128610134125,-0.08816543966531754,-0.4774506986141205
1782853725658692600,1.501692626953125,0.3508002460002899,-0.12356870621442795,-0.31120285391807556
1782853725668677600,1.511677734375,0.4335193932056427,-0.19692516326904297,-0.1525937020778656
1782853725678661600,1.52166162109375,0.5088282823562622,-0.3017383813858032,-0.02425544708967209
1782853725688646700,1.531646728515625,0.5636510848999023,-0.404085248708725,0.057197205722332
1782853725698630700,1.541630615234375,0.5956268906593323,-0.48434892296791077,0.08265116810798645
1782853725708615400,1.551615478515625,0.6127375960350037,-0.5351267457008362,0.0667409896850586
1782853725718600400,1.561600341796875,0.6365147829055786,-0.5618118643760681,0.029805343598127365
1782853725728584400,1.57158447265625,0.646527886390686,-0.5445655584335327,-0.00968818087130785
1782853725738569500,1.581569580078125,0.6518776416778564,-0.4890540540218353,-0.0350598506629467
1782853725748553500,1.591553466796875,0.6493313312530518,-0.4115974009037018,-0.04211769998073578
1782853725758538500,1.60153857421875,0.6377804279327393,-0.3285384476184845,-0.01710928976535797
1782853725768522500,1.6115224609375,0.6233372092247009,-0.26483502984046936,0.030500948429107666
1782853725778507500,1.621507568359375,0.6019810438156128,-0.20099292695522308,0.09919745475053787
1782853725788492800,1.631492919921875,0.5781700015068054,-0.1187511757016182,0.17503540217876434
1782853725798476800,1.641476806640625,0.5480829477310181,-0.02052394673228264,0.2347692996263504
1782853725808461600,1.651461669921875,0.5138594508171082,0.07437346130609512,0.2598518431186676
1782853725818445600,1.661445556640625,0.4783928394317627,0.18639133870601654,0.24614588916301727
1782853725828430600,1.6714306640625,0.44159165024757385,0.3062766194343567,0.2082848697900772
1782853725838414600,1.68141455078125,0.41732358932495117,0.4011498689651489,0.15010972321033478
1782853725848399600,1.691399658203125,0.4086257219314575,0.4644792973995209,0.09204375743865967
1782853725858384600,1.701384521484375,0.41365909576416016,0.5071662664413452,0.04001624137163162
1782853725868368600,1.71136865234375,0.434870183467865,0.5026933550834656,0.0122156273573637
1782853725878353700,1.721353759765625,0.46558284759521484,0.4458090364933014,-0.00760148698464036
1782853725888337700,1.731337646484375,0.49067404866218567,0.3558691740036011,-0.0074043902568519115
1782853725898322700,1.74132275390625,0.5129018425941467,0.2596161365509033,0.00602726312354207
1782853725908306700,1.751306640625,0.5210815072059631,0.14589188992977142,0.02945704013109207
1782853725918291500,1.76129150390625,0.4923259913921356,0.03121831826865673,0.06437188386917114
1782853725928276500,1.7712763671875,0.4532146453857422,-0.08105545490980148,0.09839630126953125
1782853725938260500,1.781260498046875,0.4188920855522156,-0.1694393754005432,0.12952464818954468
1782853725948245500,1.79124560546875,0.4119488596916199,-0.21406912803649902,0.16232739388942719
1782853725958229500,1.8012294921875,0.4192216992378235,-0.23363617062568665,0.19051961600780487
1782853725968214500,1.811214599609375,0.43468886613845825,-0.23869985342025757,0.2051319032907486
1782853725978198500,1.821198486328125,0.4595603942871094,-0.2621079981327057,0.22095827758312225
1782853725988183600,1.83118359375,0.49517935514450073,-0.2987786531448364,0.23500750958919525
1782853725998168600,1.84116845703125,0.5207006931304932,-0.34086963534355164,0.26279252767562866
1782853726008152600,1.851152587890625,0.5323914289474487,-0.3648141622543335,0.2921922504901886
1782853726018137600,1.8611376953125,0.5165826678276062,-0.3914404511451721,0.28620147705078125
1782853726028121300,1.871121337890625,0.4812786877155304,-0.41413989663124084,0.23755210638046265
1782853726038106600,1.881106689453125,0.44218212366104126,-0.41820627450942993,0.1379336267709732
1782853726048091600,1.891091552734375,0.4218149781227112,-0.38771989941596985,0.00335972779430449
1782853726058075600,1.90107568359375,0.43105030059814453,-0.361075222492218,-0.16054078936576843
1782853726068060700,1.911060791015625,0.4570377469062805,-0.36051541566848755,-0.33426716923713684
1782853726078044700,1.921044677734375,0.47946131229400635,-0.3951021432876587,-0.5048370361328125
1782853726088029700,1.93102978515625,0.46233105659484863,-0.481611430644989,-0.6764612793922424
1782853726098013700,1.941013671875,0.40159472823143005,-0.5888081192970276,-0.8510895371437073
1782853726107998700,1.950998779296875,0.3121141195297241,-0.6739493608474731,-1.0228694677352905
1782853726117983500,1.9609833984375,0.23267361521720886,-0.7281228303909302,-1.1828657388687134
1782853726127967500,1.970967529296875,0.18048706650733948,-0.7219001054763794,-1.2759629487991333
1782853726137952500,1.980952392578125,0.16655102372169495,-0.6834845542907715,-1.237870216369629
1782853726147936500,1.9909365234375,0.13901853561401367,-0.5721532106399536,-1.048389196395874
1782853726157921500,2.000921630859375,0.05263117700815201,-0.3522801995277405,-0.7135486006736755
1782853726167905500,2.010905517578125,-0.07218775898218155,-0.09163007885217667,-0.29548150300979614
1782853726177890600,2.020890625,-0.18582990765571594,0.15767428278923035,0.12704522907733917
1782853726187875600,2.03087548828125,-0.24873539805412292,0.3608555793762207,0.473449170589447
1782853726197859600,2.040859619140625,-0.2636091709136963,0.49806323647499084,0.7050682902336121
1782853726207844600,2.0508447265625,-0.24759124219417572,0.6585973501205444,0.8344908952713013
1782853726217828600,2.06082861328125,-0.21043509244918823,0.7963176369667053,0.8743496537208557
1782853726227813400,2.0708134765625,-0.170220285654068,0.8542208671569824,0.8215039968490601
1782853726237797400,2.08079736328125,-0.12511353194713593,0.8128140568733215,0.700691282749176
1782853726247782400,2.090782470703125,-0.08267822861671448,0.700396716594696,0.5396843552589417
1782853726257767700,2.100767578125,-0.06826519966125488,0.5425785779953003,0.36360442638397217
1782853726267751700,2.110751708984375,-0.10081169009208679,0.38899919390678406,0.1986471563577652
1782853726277736700,2.12073681640625,-0.17233194410800934,0.2626199424266815,0.061632320284843445
1782853726287720700,2.130720703125,-0.2649417519569397,0.1811404675245285,-0.01923634484410286
1782853726297705700,2.140705810546875,-0.3804489076137543,0.16628322005271912,-0.017595306038856506
1782853726307689700,2.150689697265625,-0.5012549161911011,0.23825015127658844,0.04699406400322914
1782853726317674800,2.1606748046875,-0.6068207621574402,0.34956732392311096,0.14251738786697388
1782853726327659500,2.170659423828125,-0.6697227954864502,0.45407822728157043,0.22930289804935455
1782853726337643500,2.1806435546875,-0.710442841053009,0.5600501894950867,0.3037872612476349
1782853726347628500,2.190628662109375,-0.7246986031532288,0.6695407032966614,0.3477056622505188
1782853726357612500,2.200612548828125,-0.7287585735321045,0.7612037658691406,0.35873326659202576
1782853726367597600,2.21059765625,-0.7089570164680481,0.8381126523017883,0.33098727464675903
1782853726377581600,2.22058154296875,-0.6722533702850342,0.8890179395675659,0.27707210183143616
1782853726387570000,2.23056982421875,-0.6114599704742432,0.9151468873023987,0.21295665204524994
1782853726397555000,2.240554931640625,-0.5299683213233948,0.917360246181488,0.15204323828220367
1782853726407539000,2.2505390625,-0.4442688226699829,0.8658463358879089,0.09840695559978485
1782853726417524000,2.26052392578125,-0.35676640272140503,0.7650941610336304,0.05697216838598251
1782853726427508000,2.270508056640625,-0.264299601316452,0.6113858222961426,0.050971463322639465
1782853726437492700,2.28049267578125,-0.1797492802143097,0.45921412110328674,0.09432718902826309
1782853726447477800,2.290477783203125,-0.09419001638889313,0.30700618028640747,0.17742079496383667
1782853726457461800,2.300461669921875,-0.021198894828557968,0.14589320123195648,0.28534141182899475
1782853726467446800,2.31044677734375,0.0336715504527092,-0.04552369937300682,0.40092960000038147
1782853726477430800,2.3204306640625,0.06209120526909828,-0.2186448872089386,0.49361586570739746
1782853726487415800,2.330415771484375,0.07102804630994797,-0.3231193423271179,0.5462989211082458
1782853726497399800,2.34039990234375,0.06542688608169556,-0.37383365631103516,0.5465487241744995
1782853726507384800,2.350384765625,0.046346377581357956,-0.3878495693206787,0.5004370808601379
1782853726517369900,2.360369873046875,0.010018196888267994,-0.34656789898872375,0.4160495102405548
1782853726527353900,2.370353759765625,-0.052167683839797974,-0.25768882036209106,0.3174682557582855
1782853726537338600,2.380338623046875,-0.1332087367773056,-0.14726512134075165,0.21599435806274414
1782853726547322600,2.390322509765625,-0.20078855752944946,-0.03666352480649948,0.12944436073303223
1782853726557307600,2.4003076171875,-0.2270403951406479,0.055723659694194794,0.07439069449901581
1782853726567291600,2.410291748046875,-0.21529945731163025,0.1354236900806427,0.06261054426431656
1782853726577277000,2.42027685546875,-0.1788032352924347,0.21103589236736298,0.08520560711622238
1782853726587262000,2.430261962890625,-0.13089203834533691,0.2893541157245636,0.14159032702445984
1782853726597246000,2.440245849609375,-0.0736207664012909,0.32424047589302063,0.21013450622558594
1782853726607231000,2.45023095703125,-0.01869632676243782,0.27881643176078796,0.24635665118694305
1782853726617215000,2.460215087890625,0.019858520478010178,0.14756228029727936,0.23208743333816528
1782853726627200000,2.470199951171875,0.04906931519508362,-0.04634827747941017,0.16071079671382904
1782853726637184000,2.48018408203125,0.052953533828258514,-0.25265005230903625,0.059458471834659576
1782853726647168800,2.490168701171875,0.02617846243083477,-0.45809242129325867,-0.06746289134025574
1782853726657153800,2.50015380859375,-0.042397402226924896,-0.6467331647872925,-0.21704812347888947
1782853726667137800,2.5101376953125,-0.13179127871990204,-0.7195779085159302,-0.3863985538482666
1782853726677122800,2.520122802734375,-0.21513277292251587,-0.6448392271995544,-0.5343819260597229
1782853726687106800,2.53010693359375,-0.26948463916778564,-0.4543449878692627,-0.6555441617965698
1782853726697091800,2.540091796875,-0.2739395797252655,-0.2226896584033966,-0.7359234094619751
1782853726707075800,2.550075927734375,-0.24868108332157135,0.009744645096361637,-0.7732188701629639
1782853726717060900,2.560060791015625,-0.2016613930463791,0.19258396327495575,-0.7681766748428345
1782853726727046000,2.5700458984375,-0.13029229640960693,0.2756817042827606,-0.7230762839317322
1782853726737030000,2.58002978515625,-0.04418378323316574,0.26864299178123474,-0.6432355046272278
1782853726747014700,2.5900146484375,0.04403683915734291,0.23753994703292847,-0.5179107785224915
1782853726756998700,2.59999853515625,0.1448768973350525,0.18166178464889526,-0.3522496521472931
1782853726766983700,2.609983642578125,0.25908175110816956,0.07163108140230179,-0.17115113139152527
1782853726776967700,2.6199677734375,0.3778848350048065,-0.023820869624614716,-0.006569370161741972
1782853726786952700,2.62995263671875,0.48976394534111023,-0.13344734907150269,0.12081471085548401
1782853726796938000,2.63993798828125,0.5812326669692993,-0.2519609332084656,0.19762693345546722
1782853726806921700,2.649921630859375,0.6510835886001587,-0.37822356820106506,0.2065289467573166
1782853726816907000,2.659906982421875,0.6892943382263184,-0.5224915146827698,0.1434306800365448
1782853726826891000,2.66989111328125,0.7075157761573792,-0.6567288041114807,0.03627670556306839
1782853726836876000,2.6798759765625,0.705876350402832,-0.7382484674453735,-0.07905202358961105
1782853726846860000,2.689860107421875,0.6827375292778015,-0.7231622934341431,-0.15842144191265106
1782853726856844800,2.6998447265625,0.6525221467018127,-0.6515123248100281,-0.19361618161201477
1782853726866829800,2.709829833984375,0.6291342973709106,-0.5633080005645752,-0.193059504032135
1782853726876813800,2.719813720703125,0.6246663331985474,-0.4785175025463104,-0.16680605709552765
1782853726886798800,2.729798828125,0.6414058208465576,-0.3926362097263336,-0.10302591323852539
1782853726896782800,2.739782958984375,0.6522864103317261,-0.2969624102115631,-0.017865478992462158
1782853726906768000,2.749767822265625,0.6529789566993713,-0.18468604981899261,0.060810886323451996
1782853726916752000,2.759751953125,0.6516508460044861,-0.045632559806108475,0.11626695841550827
1782853726926737000,2.76973681640625,0.652748167514801,0.10819360613822937,0.14948396384716034
1782853726936722000,2.779721923828125,0.663800835609436,0.27155935764312744,0.1703421026468277
1782853726946706000,2.789705810546875,0.6652843952178955,0.41841909289360046,0.18817509710788727
1782853726956690700,2.799690673828125,0.658217191696167,0.5276313424110413,0.20498736202716827
1782853726966674700,2.8096748046875,0.6444171667098999,0.5851780772209167,0.229789137840271
1782853726976659700,2.81965966796875,0.6373704075813293,0.6120419502258301,0.26162752509117126
1782853726986643700,2.829643798828125,0.6203345656394958,0.5839444994926453,0.29681020975112915
1782853726996628700,2.839628662109375,0.6047971248626709,0.5404481887817383,0.3336294889450073
1782853727006613800,2.84961376953125,0.5934693217277527,0.45735281705856323,0.35897383093833923
1782853727016597800,2.85959765625,0.5946912169456482,0.3520583510398865,0.36251768469810486
1782853727026582800,2.869582763671875,0.6047900915145874,0.22931544482707977,0.3520112931728363
1782853727036566800,2.87956689453125,0.6262919306755066,0.10306882858276367,0.3324626088142395
1782853727046552000,2.889552001953125,0.6517096757888794,0.00835875328630209,0.30987271666526794
1782853727056535800,2.899535888671875,0.6652465462684631,-0.10900941491127014,0.29609912633895874
1782853727066520800,2.909520751953125,0.6423529982566833,-0.2324102818965912,0.2812977731227875
1782853727076505900,2.919505859375,0.590230405330658,-0.3036450445652008,0.2690674662590027
1782853727086489900,2.92948974609375,0.5472613573074341,-0.3319258987903595,0.26181671023368835
1782853727096475000,2.939474853515625,0.5209701061248779,-0.35082316398620605,0.2378474771976471
1782853727106459000,2.949458984375,0.4890824556350708,-0.37115517258644104,0.21796965599060059
1782853727116444000,2.95944384765625,0.42636632919311523,-0.3847767114639282,0.2061454951763153
1782853727126428000,2.969427978515625,0.34932824969291687,-0.3862520754337311,0.19879643619060516
1782853727136413000,2.979412841796875,0.27063584327697754,-0.3642895221710205,0.19895808398723602
1782853727146398000,2.98939794921875,0.21325062215328217,-0.29763996601104736,0.20537805557250977
1782853727156382000,2.9993818359375,0.15480569005012512,-0.18887566030025482,0.21273504197597504
1782853727166366700,3.00936669921875,0.10277962684631348,-0.0748974159359932,0.1926119476556778
1782853727176350700,3.019350830078125,0.06971621513366699,0.00936739519238472,0.1324593871831894
1782853727186335700,3.029335693359375,0.07993359118700027,0.05927116051316261,0.026599150151014328
1782853727196319700,3.03931982421875,0.13312649726867676,0.05940831080079079,-0.08780651539564133
1782853727206304800,3.0493046875,0.19336558878421783,0.020083747804164886,-0.20091868937015533
1782853727216289800,3.059289794921875,0.2143622189760208,-0.0457109771668911,-0.2959488034248352
1782853727226273800,3.069273681640625,0.16512200236320496,-0.11335515230894089,-0.3809627592563629
1782853727236258800,3.0792587890625,0.06786282360553741,-0.16064943373203278,-0.46480652689933777
1782853727246242800,3.089242919921875,-0.04162050038576126,-0.1552141308784485,-0.5314105749130249
1782853727256227800,3.099227783203125,-0.14709925651550293,-0.07345908135175705,-0.5697406530380249
1782853727266211800,3.1092119140625,-0.23484490811824799,0.034312572330236435,-0.5798014402389526
1782853727276196600,3.119196533203125,-0.2945713400840759,0.15796686708927155,-0.5709089040756226
1782853727286182000,3.129181884765625,-0.34640729427337646,0.29073911905288696,-0.529470682144165
1782853727296166000,3.139165771484375,-0.4140832722187042,0.41913703083992004,-0.4729142189025879
1782853727306151000,3.14915087890625,-0.4711620509624481,0.5082963705062866,-0.4054287075996399
1782853727316135000,3.159135009765625,-0.5018845796585083,0.5717067718505859,-0.33039918541908264
1782853727326120000,3.169119873046875,-0.5241177678108215,0.6472775936126709,-0.2491181641817093
1782853727336104000,3.17910400390625,-0.5279742479324341,0.7022519111633301,-0.1580585539340973
1782853727346089000,3.1890888671875,-0.515011191368103,0.755070686340332,-0.06325895339250565
1782853727356074000,3.199073974609375,-0.48401975631713867,0.7835127115249634,0.005030889064073563
1782853727366058000,3.20905810546875,-0.446254163980484,0.7367057204246521,0.023225730285048485
1782853727376042800,3.219042724609375,-0.4183999001979828,0.5528882145881653,-0.026825720444321632
1782853727386023200,3.229023193359375,-0.4384751319885254,0.23418167233467102,-0.1358015239238739
1782853727396008000,3.239008056640625,-0.5209564566612244,-0.15455861389636993,-0.31277522444725037
1782853727405992000,3.248991943359375,-0.6376246213912964,-0.5306290984153748,-0.5313710570335388
1782853727415977000,3.25897705078125,-0.7401597499847412,-0.8372724056243896,-0.735930323600769
1782853727425962000,3.2689619140625,-0.8301626443862915,-0.986207127571106,-0.8775405287742615
1782853727435946000,3.278946044921875,-0.9139131903648376,-0.9893808364868164,-0.9180189967155457
1782853727445931000,3.288930908203125,-0.9581564664840698,-0.9404293894767761,-0.855180561542511
1782853727455915000,3.2989150390625,-0.9674953818321228,-0.8653357028961182,-0.6906762719154358
1782853727465900000,3.308900146484375,-0.9393247365951538,-0.7512296438217163,-0.4553384780883789
1782853727475884000,3.318884033203125,-0.8735441565513611,-0.5640712380409241,-0.19951200485229492
1782853727485869000,3.328869140625,-0.7831471562385559,-0.32605960965156555,0.0038254179526120424
1782853727495853800,3.338853759765625,-0.7002496123313904,-0.07657946646213531,0.12357418984174728
1782853727505837800,3.348837890625,-0.6501449942588806,0.16009359061717987,0.15247271955013275
1782853727515822800,3.35882275390625,-0.6291750073432922,0.384102463722229,0.10746770352125168
1782853727525806800,3.368806884765625,-0.6101074814796448,0.628191351890564,0.013392399065196514
1782853727535792000,3.378792236328125,-0.5667378902435303,0.8536620140075684,-0.09517429023981094
1782853727545775900,3.38877587890625,-0.49619948863983154,1.0024312734603882,-0.21261022984981537
1782853727555761200,3.39876123046875,-0.42713043093681335,1.063663363456726,-0.3001776337623596
1782853727565746200,3.40874609375,-0.3649599850177765,1.0386829376220703,-0.34785035252571106
1782853727575730200,3.418730224609375,-0.3039453625679016,0.923613429069519,-0.3550480902194977
1782853727585715000,3.42871484375,-0.24698176980018616,0.7376692891120911,-0.31157857179641724
1782853727595699000,3.438698974609375,-0.21218837797641754,0.5578222870826721,-0.22997984290122986
1782853727605684000,3.44868408203125,-0.19703656435012817,0.4036063551902771,-0.12897531688213348
1782853727615668000,3.45866796875,-0.20126725733280182,0.2734009325504303,-0.018922312185168266
1782853727625653000,3.468653076171875,-0.19778671860694885,0.14775867760181427,0.0887962132692337
1782853727635637000,3.478636962890625,-0.17828544974327087,0.048435818403959274,0.20768585801124573
1782853727645622000,3.4886220703125,-0.13672053813934326,-0.0008629364892840385,0.33896228671073914
1782853727655607000,3.49860693359375,-0.0838426724076271,-0.03290396183729172,0.4561195373535156
1782853727665591000,3.508591064453125,-0.024776669219136238,-0.046798225492239,0.54701167345047
1782853727675576000,3.518576171875,0.051017165184020996,-0.013564635999500751,0.6072606444358826
1782853727685560000,3.52856005859375,0.10530629009008408,0.04712090641260147,0.645317018032074
1782853727695544800,3.538544921875,0.12374547868967056,0.09055279940366745,0.644267737865448
1782853727705529000,3.548529052734375,0.09495663642883301,0.10290161520242691,0.6330084204673767
1782853727715513900,3.558513916015625,0.034138552844524384,0.08329595625400543,0.6026992797851562
1782853727725499000,3.568498779296875,-0.04250737652182579,0.05738111212849617,0.5637683272361755
1782853727735483000,3.57848291015625,-0.10954552888870239,0.018558349460363388,0.5028804540634155
1782853727745468000,3.588468017578125,-0.17307740449905396,-0.003868776373565197,0.4241476058959961
1782853727755452000,3.598451904296875,-0.21666856110095978,-0.03303704783320427,0.3270226716995239
1782853727765437000,3.60843701171875,-0.23612558841705322,-0.07924675941467285,0.2253182828426361
1782853727775421000,3.6184208984375,-0.24097973108291626,-0.1381652057170868,0.16088470816612244
1782853727785406200,3.62840625,-0.2408471703529358,-0.15485060214996338,0.15085448324680328
1782853727795391000,3.638390869140625,-0.2491980344057083,-0.12505090236663818,0.18956512212753296
1782853727805375000,3.648375,-0.25278475880622864,-0.08180958032608032,0.2600885331630707
1782853727815360000,3.658360107421875,-0.25961121916770935,-0.018471084535121918,0.33491483330726624
1782853727825344000,3.668343994140625,-0.28053340315818787,0.03092193230986595,0.38361692428588867
1782853727835329000,3.6783291015625,-0.3173809051513672,0.06145773455500603,0.390496164560318
1782853727845313000,3.68831298828125,-0.332485169172287,0.0811040997505188,0.36792460083961487
1782853727855298000,3.698298095703125,-0.3140374422073364,0.07866092026233673,0.3456709682941437
1782853727865282000,3.708281982421875,-0.2564477324485779,0.031209778040647507,0.359852135181427
1782853727875267000,3.71826708984375,-0.17987492680549622,0.00785278994590044,0.45262226462364197
1782853727885252000,3.728252197265625,-0.08253073692321777,0.013718082569539547,0.6044633984565735
1782853727895236000,3.738236083984375,0.03645184263586998,0.023314785212278366,0.7819657325744629
1782853727905220900,3.748220947265625,0.13726367056369781,0.02724800631403923,0.9581442475318909
1782853727915205000,3.758205078125,0.2057095766067505,0.018774893134832382,1.0686105489730835
1782853727925190000,3.76818994140625,0.23696808516979218,-0.03857514262199402,1.0822187662124634
1782853727935174000,3.778173828125,0.23917877674102783,-0.1669216752052307,0.9728155732154846
1782853727945159000,3.788158935546875,0.2332964688539505,-0.34422987699508667,0.7553439140319824
1782853727955144000,3.79814404296875,0.23795166611671448,-0.5401575565338135,0.47176092863082886
1782853727965128000,3.8081279296875,0.2594239115715027,-0.7178452610969543,0.16792649030685425
1782853727975113000,3.818113037109375,0.2700504660606384,-0.8531594276428223,-0.10707472264766693
1782853727985097000,3.828096923828125,0.26151102781295776,-0.9225373268127441,-0.35274723172187805
1782853727995082000,3.83808203125,0.2371513545513153,-0.9559040665626526,-0.5538963079452515
1782853728005066000,3.84806591796875,0.21110402047634125,-0.968124508857727,-0.6988645195960999
1782853728015051000,3.858051025390625,0.19861431419849396,-0.90752112865448,-0.7803218364715576
1782853728025036000,3.8680361328125,0.2153339684009552,-0.7780386209487915,-0.8052622675895691
1782853728035020000,3.87802001953125,0.2719469368457794,-0.6157122850418091,-0.7845500707626343
1782853728045005000,3.888005126953125,0.3596091866493225,-0.4456818997859955,-0.7184628844261169
1782853728054989000,3.897989013671875,0.46775326132774353,-0.28098538517951965,-0.6274895668029785
1782853728064974000,3.90797412109375,0.5672587156295776,-0.14059652388095856,-0.5055444240570068
1782853728074958000,3.9179580078125,0.640018105506897,-0.04312321916222572,-0.372680127620697
1782853728084943000,3.927943115234375,0.6679525375366211,0.015920251607894897,-0.24877691268920898
1782853728094927000,3.937927001953125,0.6520412564277649,0.051527783274650574,-0.16149313747882843
1782853728104912100,3.947912109375,0.6066414713859558,0.09927861392498016,-0.10543316602706909
1782853728114897000,3.95789697265625,0.5560427308082581,0.17148570716381073,-0.07864256948232651
1782853728124881200,3.967881103515625,0.5070573687553406,0.23207539319992065,-0.06267587095499039
1782853728134866000,3.977865966796875,0.47374415397644043,0.23646746575832367,-0.06324339658021927
1782853728144850000,3.987849853515625,0.45110440254211426,0.17528143525123596,-0.06453683972358704
1782853728154835000,3.9978349609375,0.4495808184146881,0.0932651236653328,-0.05242638289928436
1782853728164818200,4.007818115234375,0.4353029131889343,0.020532451570034027,-0.02384248562157154
1782853728174803000,4.017802978515625,0.4064539670944214,-0.05374816805124283,0.031116638332605362
1782853728184787000,4.027786865234375,0.3598998785018921,-0.14499378204345703,0.08270513266324997
1782853728194772000,4.03777197265625,0.3134106397628784,-0.23773783445358276,0.12983588874340057
1782853728204757000,4.047757080078125,0.27512282133102417,-0.33140912652015686,0.15238900482654572
1782853728214741000,4.057740966796875,0.24801744520664215,-0.3816494047641754,0.16596128046512604
1782853728224726000,4.06772607421875,0.23564746975898743,-0.42190903425216675,0.17524354159832
1782853728234710000,4.0777099609375,0.23387327790260315,-0.45394366979599,0.19561566412448883
1782853728244695000,4.087695068359375,0.23251934349536896,-0.4802980124950409,0.242325097322464
1782853728254679000,4.097678955078125,0.22377431392669678,-0.503127932548523,0.3071208596229553
1782853728264663800,4.107663818359375,0.20093758404254913,-0.5264293551445007,0.3710050582885742
1782853728274648800,4.11764892578125,0.15799464285373688,-0.5196135640144348,0.39686116576194763
1782853728284632800,4.1276328125,0.09441549330949783,-0.45448392629623413,0.35615190863609314
1782853728294617900,4.137617919921875,0.021317053586244583,-0.3013870418071747,0.25360554456710815
1782853728304601900,4.147601806640625,-0.04457193985581398,-0.05646583437919617,0.10375790297985077
1782853728314587000,4.1575869140625,-0.12653738260269165,0.25318071246147156,-0.0560956746339798
1782853728324571000,4.16757080078125,-0.23410142958164215,0.5044238567352295,-0.22739025950431824
1782853728334556200,4.17755615234375,-0.34347906708717346,0.6336268186569214,-0.3800109624862671
1782853728344540000,4.187539794921875,-0.3964111804962158,0.6815733909606934,-0.4901299476623535
1782853728354525200,4.197525146484375,-0.3891359567642212,0.7203466296195984,-0.5350378155708313
1782853728364510000,4.207510009765625,-0.35493406653404236,0.7349482178688049,-0.520936906337738
1782853728374494000,4.217493896484375,-0.33941611647605896,0.682336151599884,-0.4717235863208771
1782853728384479000,4.22747900390625,-0.34452250599861145,0.5874283313751221,-0.4015263617038727
1782853728394463700,4.237463623046875,-0.3729237914085388,0.4508102834224701,-0.35091376304626465
1782853728404448800,4.24744873046875,-0.41733890771865845,0.30036115646362305,-0.3286091983318329
1782853728414432800,4.257432861328125,-0.4552953243255615,0.18218737840652466,-0.31378284096717834
1782853728424417800,4.267417724609375,-0.4799138307571411,0.10376186668872833,-0.2963370382785797
1782853728434402800,4.27740283203125,-0.508013129234314,-0.024376127868890762,-0.303562730550766
1782853728444386800,4.28738671875,-0.5546271204948425,-0.17512564361095428,-0.35050368309020996
1782853728454371800,4.297371826171875,-0.5927894115447998,-0.33782240748405457,-0.43236738443374634
1782853728464355800,4.30735595703125,-0.5957872271537781,-0.4464573562145233,-0.5235080122947693
1782853728474340900,4.3173408203125,-0.5747138857841492,-0.485789030790329,-0.6143444180488586
1782853728484324900,4.327324951171875,-0.5298142433166504,-0.47868427634239197,-0.6728085875511169
1782853728494310000,4.337309814453125,-0.47186386585235596,-0.46029406785964966,-0.6993685364723206
1782853728504294000,4.3472939453125,-0.3973957598209381,-0.4630049169063568,-0.6803091168403625
1782853728514279000,4.35727880859375,-0.30496010184288025,-0.4512827396392822,-0.6076806783676147
1782853728524264000,4.367263916015625,-0.21257296204566956,-0.42154771089553833,-0.48247289657592773
1782853728534250800,4.377250732421875,-0.1758064329624176,-0.39148807525634766,-0.305446982383728
1782853728544236000,4.387236083984375,-0.13871897757053375,-0.34356504678726196,-0.12097778171300888
1782853728554220800,4.397220703125,-0.11273905634880066,-0.21358177065849304,0.06459980458021164
1782853728564205000,4.407205078125,-0.13109645247459412,-0.021740399301052094,0.23295797407627106
1782853728574189800,4.41718994140625,-0.20057566463947296,0.23746082186698914,0.37367913126945496
1782853728584173800,4.427173828125,-0.3140268325805664,0.5048173666000366,0.4706992208957672
1782853728594158800,4.437158935546875,-0.4380667507648468,0.7192383408546448,0.5331077575683594
1782853728604142800,4.447142822265625,-0.5346527099609375,0.8032470941543579,0.5445001721382141
1782853728614127900,4.4571279296875,-0.5646045207977295,0.6689473390579224,0.49529004096984863
1782853728624111900,4.46711181640625,-0.5474361181259155,0.4358251094818115,0.39406517148017883
1782853728634097000,4.477096923828125,-0.5260549187660217,0.25928550958633423,0.2733520567417145
1782853728644082000,4.48708203125,-0.5215840339660645,0.220790833234787,0.16474302113056183
1782853728654066000,4.49706591796875,-0.5347914099693298,0.2903193235397339,0.07240856438875198
1782853728664051000,4.507051025390625,-0.5253759026527405,0.3990590572357178,0.009175872430205345
1782853728674035000,4.517034912109375,-0.47768399119377136,0.4886651337146759,0.0013384558260440826
1782853728684019700,4.527019775390625,-0.40487417578697205,0.5228759050369263,0.03076464682817459
1782853728694003700,4.537003662109375,-0.36487430334091187,0.43478089570999146,0.07997587323188782
1782853728703988700,4.54698876953125,-0.3438135087490082,0.2482413351535797,0.14852717518806458
1782853728713972700,4.55697265625,-0.3245663046836853,0.07699557393789291,0.2479480355978012
1782853728723957800,4.566957763671875,-0.3013969957828522,-0.04252205044031143,0.37446868419647217
1782853728733942800,4.57694287109375,-0.2632155120372772,-0.13630074262619019,0.5164545774459839
1782853728743926800,4.5869267578125,-0.1913803070783615,-0.1640813648700714,0.676289439201355
1782853728753911800,4.596911865234375,-0.08671274781227112,-0.1309867948293686,0.8529409170150757
1782853728763895800,4.606895751953125,0.01002284325659275,-0.05078475922346115,1.009765863418579
1782853728773880800,4.616880859375,0.0708712786436081,0.015169220976531506,1.106469988822937
1782853728783864800,4.62686474609375,0.09439682960510254,0.04880109429359436,1.1199451684951782
1782853728793849900,4.636849853515625,0.08300542831420898,-0.06048864498734474,1.0286575555801392
1782853728803835000,4.6468349609375,0.042923521250486374,-0.24178431928157806,0.8809558749198914
1782853728813819000,4.65681884765625,-0.02232552319765091,-0.3608585298061371,0.7266350388526917
1782853728823804000,4.666803955078125,-0.07738929986953735,-0.3742132782936096,0.5814421772956848
1782853728833788000,4.676787841796875,-0.10690271854400635,-0.34249821305274963,0.43980732560157776
1782853728843773000,4.68677294921875,-0.09995002299547195,-0.24970747530460358,0.319689005613327
1782853728853757000,4.6967568359375,-0.0705290213227272,-0.04981726408004761,0.25169557332992554
1782853728863742000,4.706741943359375,-0.06282045692205429,0.2507740259170532,0.23706349730491638
1782853728873726000,4.716725830078125,-0.09494110941886902,0.5366818904876709,0.21668419241905212
1782853728883711000,4.7267109375,-0.13970719277858734,0.6402023434638977,0.14976663887500763
1782853728893695700,4.73669580078125,-0.15269435942173004,0.5800418257713318,0.05586544796824455
1782853728903679700,4.7466796875,-0.12909594178199768,0.49751365184783936,-0.03096434473991394
1782853728913664800,4.756664794921875,-0.08270473778247833,0.3979250192642212,-0.10807564109563828
1782853728923648800,4.766648681640625,-0.014916224405169487,0.2992944121360779,-0.15298791229724884
1782853728933633800,4.7766337890625,0.05659470707178116,0.19491472840309143,-0.18759863078594208
1782853728943617800,4.78661767578125,0.1362622231245041,0.07530578970909119,-0.23283497989177704
1782853728953602800,4.796602783203125,0.21052765846252441,-0.09726012498140335,-0.29503414034843445
1782853728963587800,4.806587890625,0.2750430107116699,-0.33864927291870117,-0.38622692227363586
1782853728973571800,4.81657177734375,0.3020562529563904,-0.6022252440452576,-0.4900747835636139
1782853728983556900,4.826556884765625,0.28806304931640625,-0.8073596358299255,-0.5816074013710022
1782853728993540900,4.836540771484375,0.23984545469284058,-0.8589082956314087,-0.6438313722610474
1782853729003525600,4.846525634765625,0.19545790553092957,-0.7625373005867004,-0.6640552282333374
1782853729013509600,4.856509521484375,0.18644656240940094,-0.6185481548309326,-0.6397885084152222
1782853729023494700,4.86649462890625,0.21360208094120026,-0.5186485648155212,-0.5719543099403381
1782853729033478700,4.876478759765625,0.2648862898349762,-0.443311482667923,-0.45399144291877747
1782853729043464000,4.8864638671875,0.3009883761405945,-0.3396325409412384,-0.2957189977169037
1782853729053449000,4.896448974609375,0.30761244893074036,-0.2075757086277008,-0.1386721134185791
1782853729063433000,4.906432861328125,0.2807445526123047,-0.04116417467594147,-0.036477889865636826
1782853729073418000,4.91641796875,0.2334177941083908,0.13172824680805206,-0.022227846086025238
1782853729083402000,4.926402099609375,0.19057181477546692,0.2808187007904053,-0.08711737394332886
1782853729093387000,4.936386962890625,0.17827627062797546,0.38888365030288696,-0.19696317613124847
1782853729103371000,4.94637109375,0.19041123986244202,0.4712361693382263,-0.3122270405292511
1782853729113355800,4.956355712890625,0.21300309896469116,0.5281537771224976,-0.39205607771873474
1782853729123339800,4.96633984375,0.2559841275215149,0.553300678730011,-0.4187806248664856
1782853729133324800,4.97632470703125,0.2948404550552368,0.5440174341201782,-0.38689059019088745
1782853729143309800,4.986309814453125,0.34384846687316895,0.5220361351966858,-0.30581316351890564
1782853729153293800,4.9962939453125,0.400335431098938,0.4766422510147095,-0.19877539575099945
1782853729163278800,5.00627880859375,0.44690370559692383,0.43016743659973145,-0.07552602887153625
1782853729173262800,5.016262939453125,0.46621111035346985,0.3827197551727295,0.031519196927547455
1782853729183248000,5.026247802734375,0.46971479058265686,0.2884180247783661,0.10977998375892639
1782853729193232000,5.03623193359375,0.45416486263275146,0.1364804357290268,0.15486329793930054
1782853729203217000,5.046216796875,0.43071818351745605,-0.00918734073638916,0.19370386004447937
1782853729213201000,5.056200927734375,0.42176514863967896,-0.13901403546333313,0.23628515005111694
1782853729223185700,5.066185546875,0.4199644923210144,-0.2572808265686035,0.3052222728729248
1782853729233170700,5.076170654296875,0.40887510776519775,-0.3257181942462921,0.3944821059703827
1782853729243154700,5.08615478515625,0.3975733816623688,-0.30639520287513733,0.48092493414878845
1782853729253139700,5.0961396484375,0.3893894851207733,-0.2350643277168274,0.5488107800483704
1782853729263123700,5.106123779296875,0.3915320932865143,-0.16600579023361206,0.5816829800605774
1782853729273108700,5.116108642578125,0.3856414556503296,-0.08892885595560074,0.5690561532974243
1782853729283092700,5.1260927734375,0.3752780556678772,-0.005142246372997761,0.5241796970367432
1782853729293078000,5.136078125,0.37645918130874634,0.05770569294691086,0.45495322346687317
1782853729303063000,5.14606298828125,0.38534432649612427,0.02828264608979225,0.3694881796836853
1782853729313047000,5.156047119140625,0.3757058084011078,-0.1129559725522995,0.27948904037475586
1782853729323031800,5.16603173828125,0.342317134141922,-0.24945734441280365,0.20108190178871155
1782853729333015800,5.176015869140625,0.31788957118988037,-0.30623355507850647,0.15720605850219727
1782853729343000800,5.186000732421875,0.296572208404541,-0.3025491237640381,0.116622693836689
1782853729352984800,5.19598486328125,0.2634730935096741,-0.29683104157447815,0.052552368491888046
1782853729362969900,5.205969970703125,0.1947452425956726,-0.2932147979736328,-0.04241460561752319
1782853729372953900,5.215953857421875,0.10821780562400818,-0.2733425498008728,-0.16154205799102783
1782853729382942500,5.2259423828125,0.029752036556601524,-0.2012309432029724,-0.3077305257320404
1782853729392927500,5.235927490234375,-0.030430611222982407,-0.11396102607250214,-0.4559282660484314
1782853729402911500,5.245911376953125,-0.1053144782781601,-0.041454412043094635,-0.6144287586212158
1782853729412896500,5.255896484375,-0.20954634249210358,-0.009505799040198326,-0.7852007150650024
1782853729422880500,5.265880615234375,-0.3106076121330261,-0.005764964036643505,-0.9315748810768127
1782853729432865300,5.275865234375,-0.39799392223358154,-0.012348032556474209,-1.0291640758514404
1782853729442849300,5.285849365234375,-0.4689022898674011,-0.0023715030401945114,-1.053023099899292
1782853729452834300,5.295834228515625,-0.5113890171051025,0.06432603299617767,-1.0009324550628662
1782853729462818300,5.305818359375,-0.5272667407989502,0.1458682268857956,-0.8713292479515076
1782853729472803300,5.31580322265625,-0.5176506042480469,0.2099425494670868,-0.6999207735061646
1782853729482788400,5.325788330078125,-0.48346757888793945,0.24807199835777283,-0.5045859813690186
1782853729492772400,5.3357724609375,-0.4353184401988983,0.24576756358146667,-0.3239227533340454
1782853729502757400,5.34575732421875,-0.3906700611114502,0.20753227174282074,-0.18332694470882416
1782853729512741400,5.355741455078125,-0.3752894997596741,0.1440662145614624,-0.09493609517812729
1782853729522726400,5.365726318359375,-0.4016744792461395,0.08562614023685455,-0.05099175125360489
1782853729532710400,5.37571044921875,-0.4660886228084564,0.06673767417669296,-0.0432715117931366
1782853729542695200,5.385695068359375,-0.5448780059814453,0.08426136523485184,-0.0704452395439148
1782853729552679400,5.395679443359375,-0.6276684999465942,0.12017915397882462,-0.13309583067893982
1782853729562664200,5.405664306640625,-0.6980509757995605,0.13299915194511414,-0.20363226532936096
1782853729572649500,5.4156494140625,-0.7491282820701599,0.14040060341358185,-0.2741841971874237
1782853729582633200,5.42563330078125,-0.7688537240028381,0.18013910949230194,-0.3232174813747406
1782853729592618500,5.435618408203125,-0.7516521215438843,0.23555922508239746,-0.34493663907051086
1782853729602602500,5.4456025390625,-0.7170953154563904,0.2882765829563141,-0.3434094190597534
1782853729612587500,5.45558740234375,-0.6676372289657593,0.3633849322795868,-0.3202771842479706
1782853729622571500,5.465571533203125,-0.6067152619361877,0.43882128596305847,-0.29297345876693726
1782853729632556500,5.475556640625,-0.5611624121665955,0.5067822337150574,-0.25368010997772217
1782853729642540500,5.48554052734375,-0.5034453272819519,0.5050034523010254,-0.20301339030265808
1782853729652525300,5.495525390625,-0.4435308873653412,0.4307662844657898,-0.1408272534608841
1782853729662510300,5.50551025390625,-0.39506903290748596,0.36548495292663574,-0.05978071689605713
1782853729672494300,5.515494384765625,-0.35767799615859985,0.34435969591140747,0.0323215126991272
1782853729682479400,5.525479248046875,-0.31579476594924927,0.31588515639305115,0.13699673116207123
1782853729692463400,5.53546337890625,-0.2737239897251129,0.2624908983707428,0.23454245924949646
1782853729702448400,5.545448486328125,-0.24444757401943207,0.19417251646518707,0.3225502371788025
1782853729712432400,5.555432373046875,-0.2213963121175766,0.112782321870327,0.3904626965522766
1782853729722417400,5.56541748046875,-0.19975446164608002,0.001341261900961399,0.43579456210136414
1782853729732401400,5.5754013671875,-0.17887474596500397,-0.10701397061347961,0.4534910023212433
1782853729742386400,5.585386474609375,-0.16301102936267853,-0.20342759788036346,0.448058158159256
1782853729752371200,5.59537109375,-0.14269456267356873,-0.259040504693985,0.4237091541290283
1782853729762355200,5.605355224609375,-0.12918756902217865,-0.2545716166496277,0.41348958015441895
1782853729772340200,5.61534033203125,-0.12017624080181122,-0.19637009501457214,0.4248570203781128
1782853729782324200,5.62532421875,-0.11193110048770905,-0.07382973283529282,0.4587067663669586
1782853729792309200,5.635309326171875,-0.0918697714805603,0.040453702211380005,0.4844565987586975
1782853729802293200,5.645293212890625,-0.05994400009512901,0.11574976146221161,0.49163907766342163
1782853729812278300,5.6552783203125,-0.014285702258348465,0.15636643767356873,0.491679310798645
1782853729822262300,5.66526220703125,0.036059439182281494,0.17646944522857666,0.49510490894317627
1782853729832247300,5.675247314453125,0.0728888213634491,0.1715436577796936,0.49069470167160034
1782853729842232600,5.685232666015625,0.08118733018636703,0.11817853152751923,0.4915308356285095
1782853729852216600,5.695216552734375,0.06638921052217484,0.04339883476495743,0.5020423531532288
1782853729862201300,5.705201416015625,0.03685469180345535,-0.04765051603317261,0.5048295259475708
1782853729872185300,5.715185302734375,-0.0017374418675899506,-0.15174390375614166,0.49407652020454407
1782853729882170400,5.72517041015625,-0.03278830274939537,-0.22918781638145447,0.46141791343688965
1782853729892154400,5.735154296875,-0.04480848088860512,-0.23830461502075195,0.43220463395118713
1782853729902139400,5.745139404296875,-0.0581979975104332,-0.24216598272323608,0.4017185568809509
1782853729912123400,5.755123291015625,-0.0984514132142067,-0.24573755264282227,0.36043423414230347
1782853729922108400,5.7651083984375,-0.1604764759540558,-0.23688283562660217,0.2916686534881592
1782853729932093400,5.775093505859375,-0.21540097892284393,-0.21991316974163055,0.2091497927904129
1782853729942077400,5.785077392578125,-0.2621845602989197,-0.1836927980184555,0.11060216277837753
1782853729952062500,5.7950625,-0.3248801529407501,-0.15531335771083832,0.0071285017766058445
1782853729962046500,5.80504638671875,-0.39086073637008667,-0.1674698442220688,-0.07915286719799042
1782853729972031200,5.81503125,-0.4576059579849243,-0.1953163892030716,-0.1454184353351593
1782853729982015500,5.825015380859375,-0.49445396661758423,-0.18329817056655884,-0.18189454078674316
1782853729992000300,5.835000244140625,-0.48597633838653564,-0.14545437693595886,-0.18256671726703644
1782853730001984300,5.844984375,-0.43994468450546265,-0.0780879333615303,-0.16314487159252167
1782853730011969300,5.85496923828125,-0.3596232235431671,0.033231936395168304,-0.11552142351865768
1782853730021954300,5.864954345703125,-0.25108471512794495,0.18100379407405853,-0.05183597281575203
1782853730031938300,5.874938232421875,-0.14481686055660248,0.31391844153404236,0.0031300722621381283
1782853730041923300,5.88492333984375,-0.05665668845176697,0.3736964762210846,0.02420327439904213
1782853730051907300,5.8949072265625,0.011121295392513275,0.316352516412735,-0.01342958863824606
1782853730061892400,5.904892333984375,0.07559353113174438,0.16352541744709015,-0.09926153719425201
1782853730071876400,5.91487646484375,0.1200089305639267,-0.0454309917986393,-0.22661496698856354
1782853730081861400,5.924861328125,0.14834682643413544,-0.286268025636673,-0.35542601346969604
1782853730091845400,5.934845458984375,0.18018971383571625,-0.5245943665504456,-0.4283846616744995
1782853730101830400,5.944830322265625,0.2093832641839981,-0.6716853380203247,-0.4296000301837921
1782853730111815400,5.9548154296875,0.2643338739871979,-0.6990224123001099,-0.35910215973854065
1782853730121799400,5.96479931640625,0.33392199873924255,-0.6746314764022827,-0.22891822457313538
1782853730131784400,5.974784423828125,0.41009771823883057,-0.6239520311355591,-0.06355695426464081
1782853730141768400,5.9847685546875,0.46910059452056885,-0.5546898245811462,0.0877971276640892
1782853730151753500,5.99475341796875,0.493222713470459,-0.47644829750061035,0.19099195301532745
1782853730161737500,6.004737548828125,0.4812641143798828,-0.4030590355396271,0.22772568464279175
1782853730171722500,6.014722412109375,0.44909605383872986,-0.30049166083335876,0.20530293881893158
1782853730181706500,6.02470654296875,0.4168643057346344,-0.1663728803396225,0.1410873532295227
1782853730191691500,6.03469140625,0.39270836114883423,-0.01993577554821968,0.05707794427871704
1782853730201675500,6.044675537109375,0.38637247681617737,0.12408581376075745,-0.02743753418326378
1782853730211660300,6.054660400390625,0.39359578490257263,0.2556012272834778,-0.09181811660528183
1782853730221645300,6.064645263671875,0.42153018712997437,0.35664698481559753,-0.13635431230068207
1782853730231629300,6.07462939453125,0.46180251240730286,0.4101240634918213,-0.160455122590065
1782853730241614300,6.0846142578125,0.513160228729248,0.40112972259521484,-0.16534847021102905
1782853730251598300,6.094598388671875,0.5650060772895813,0.35249826312065125,-0.1477963775396347
1782853730261583400,6.104583251953125,0.6038227081298828,0.2642786502838135,-0.11011498421430588
1782853730271567400,6.1145673828125,0.6176599860191345,0.12821802496910095,-0.049681998789310455
1782853730281552400,6.124552490234375,0.600373387336731,-0.031586188822984695,0.03184998780488968
1782853730291536400,6.134536376953125,0.560767650604248,-0.19243979454040527,0.12595917284488678
1782853730301521400,6.144521484375,0.5055661797523499,-0.3266964554786682,0.22819142043590546
1782853730311506200,6.154506103515625,0.45153549313545227,-0.40609726309776306,0.3065283000469208
1782853730321490200,6.164490234375,0.40291252732276917,-0.41022804379463196,0.33247247338294983
1782853730331475200,6.17447509765625,0.3717639148235321,-0.35222306847572327,0.30734875798225403
1782853730341459200,6.184459228515625,0.34841012954711914,-0.2884887754917145,0.23246696591377258
1782853730351444500,6.194444580078125,0.3213233947753906,-0.29944396018981934,0.1295190155506134
1782853730361428200,6.20442822265625,0.2845419645309448,-0.31911543011665344,0.04365139082074165
1782853730371413500,6.21441357421875,0.24811552464962006,-0.29561781883239746,0.004004643298685551
1782853730381397500,6.2243974609375,0.22013790905475616,-0.2514863908290863,0.0031707556918263435
1782853730391378400,6.23437841796875,0.20283961296081543,-0.1965043842792511,0.027937887236475945
1782853730401363500,6.244363525390625,0.19956843554973602,-0.11320021003484726,0.0679931715130806
1782853730411347500,6.254347412109375,0.2100413292646408,0.020165571942925453,0.10062594711780548
1782853730421332500,6.26433251953125,0.2283356487751007,0.16978678107261658,0.08291133493185043
1782853730431316500,6.27431640625,0.24745874106884003,0.30827194452285767,0.013296032324433327
1782853730441301200,6.28430126953125,0.2625368535518646,0.39151161909103394,-0.1156093180179596
1782853730451285200,6.29428515625,0.257094144821167,0.38447901606559753,-0.30003243684768677
1782853730461270300,6.304270263671875,0.22725126147270203,0.2825143337249756,-0.5276385545730591
1782853730471254300,6.314254150390625,0.18008668720722198,0.10776890069246292,-0.7396802306175232
1782853730481239300,6.3242392578125,0.16278111934661865,-0.035304706543684006,-0.8821166753768921
1782853730491223300,6.334223388671875,0.17487293481826782,-0.05523686856031418,-0.9260753393173218
1782853730501208300,6.344208251953125,0.18955865502357483,-0.06946196407079697,-0.8658124804496765
1782853730511193300,6.354193359375,0.18028339743614197,-0.07929728180170059,-0.72650545835495
1782853730521177300,6.36417724609375,0.1395789235830307,-0.07181001454591751,-0.5596901774406433
1782853730531162400,6.374162353515625,0.0838802307844162,-0.09172859787940979,-0.41069647669792175
1782853730541146400,6.384146484375,0.028215140104293823,-0.14816874265670776,-0.310970276594162
1782853730551131400,6.39413134765625,-0.012788485735654831,-0.17050281167030334,-0.2514348030090332
1782853730561115400,6.404115478515625,-0.04181434586644173,-0.08861756324768066,-0.20956633985042572
1782853730571100400,6.414100341796875,-0.06026339903473854,0.0398583859205246,-0.1871451884508133
1782853730581084400,6.42408447265625,-0.05550958961248398,0.17865552008152008,-0.1785321682691574
1782853730591069400,6.4340693359375,-0.02463822439312935,0.28676655888557434,-0.16157342493534088
1782853730601054500,6.444054443359375,0.006104747764766216,0.3255932033061981,-0.14055998623371124
1782853730611038500,6.45403857421875,0.018047694116830826,0.3125953674316406,-0.1071745976805687
1782853730621023500,6.4640234375,0.014369875192642212,0.2575546205043793,-0.06421497464179993
1782853730631007500,6.474007568359375,0.00482457410544157,0.14260061085224152,0.008808634243905544
1782853730640992500,6.483992431640625,-0.0072507094591856,0.017609035596251488,0.10276937484741211
1782853730650976500,6.4939765625,-0.03739423304796219,-0.06314173340797424,0.2218526303768158
1782853730660961300,6.503961181640625,-0.09447828680276871,-0.0848691388964653,0.34939512610435486
1782853730670945300,6.5139453125,-0.17558032274246216,-0.06900974363088608,0.44591954350471497
1782853730680930300,6.523930419921875,-0.26199281215667725,-0.041075728833675385,0.4862671494483948
1782853730690914300,6.533914306640625,-0.33585450053215027,0.025836458429694176,0.46662554144859314
1782853730700899300,6.5438994140625,-0.3915027976036072,0.11193083971738815,0.3917757272720337
1782853730710884400,6.55388427734375,-0.4362074136734009,0.2078336626291275,0.29374822974205017
1782853730720868400,6.563868408203125,-0.4712863862514496,0.3078533113002777,0.19278128445148468
1782853730730853400,6.573853271484375,-0.4900025427341461,0.3884938359260559,0.1032724529504776
1782853730740837400,6.58383740234375,-0.49474936723709106,0.42869848012924194,0.04431226849555969
1782853730750822400,6.593822509765625,-0.5022474527359009,0.44234612584114075,0.01854512095451355
1782853730760806400,6.603806396484375,-0.4975363612174988,0.442273885011673,0.021451644599437714
1782853730770791200,6.613791259765625,-0.4946580231189728,0.4024183750152588,0.04632823169231415
1782853730780775400,6.623775390625,-0.505442202091217,0.3443765342235565,0.08127578347921371
1782853730790760200,6.63376025390625,-0.5137525796890259,0.2796422839164734,0.11664362996816635
1782853730800745500,6.643745361328125,-0.5146859884262085,0.1960793435573578,0.14913596212863922
1782853730810729200,6.653729248046875,-0.49275195598602295,0.09256067126989365,0.1840667873620987
1782853730820714500,6.663714599609375,-0.4508066773414612,-0.019656401127576828,0.23075319826602936
1782853730830698500,6.673698486328125,-0.3935551047325134,-0.14541806280612946,0.30030617117881775
1782853730840683500,6.68368359375,-0.3242809474468231,-0.2715921401977539,0.3867776393890381
1782853730850667500,6.69366748046875,-0.2631464898586273,-0.3534289598464966,0.4936010241508484
1782853730860652500,6.703652587890625,-0.21981844305992126,-0.39144933223724365,0.6047518849372864
1782853730870636500,6.713636474609375,-0.20658358931541443,-0.36906999349594116,0.721565842628479
1782853730880621300,6.723621337890625,-0.19182169437408447,-0.30570417642593384,0.8135185241699219
1782853730890605600,6.73360546875,-0.16548755764961243,-0.24506960809230804,0.8739083409309387
1782853730900590300,6.74359033203125,-0.14872032403945923,-0.1695791333913803,0.8995870351791382
1782853730910575400,6.753575439453125,-0.12701423466205597,-0.09256263822317123,0.8732502460479736
1782853730920559400,6.763559326171875,-0.10550813376903534,-0.02375854179263115,0.8300316333770752
1782853730930544400,6.77354443359375,-0.09388316422700882,0.02701888605952263,0.7681241035461426
1782853730940528400,6.7835283203125,-0.09561444073915482,0.05911906808614731,0.6953410506248474
1782853730950513400,6.793513427734375,-0.10189444571733475,0.039362408220767975,0.6345932483673096
1782853730960497400,6.803497314453125,-0.11496126651763916,0.004051120951771736,0.5915750861167908
1782853730970482400,6.813482421875,-0.1415071189403534,-0.019727710634469986,0.5684292912483215
1782853730980466400,6.823466552734375,-0.17086097598075867,-0.05801251903176308,0.527875542640686
1782853730990451500,6.833451416015625,-0.19237026572227478,-0.11906734853982925,0.4672791063785553
1782853731000436200,6.843436279296875,-0.19124776124954224,-0.19075655937194824,0.393218457698822
1782853731010420200,6.853420166015625,-0.18197597563266754,-0.25490862131118774,0.31033769249916077
1782853731020405200,6.8634052734375,-0.17663761973381042,-0.32286956906318665,0.2426576018333435
1782853731030389200,6.87338916015625,-0.17877453565597534,-0.36837872862815857,0.19616574048995972
1782853731040374300,6.883374267578125,-0.17496387660503387,-0.3207022547721863,0.17116881906986237
1782853731050358300,6.893358154296875,-0.12328603118658066,-0.22582556307315826,0.1766783744096756
1782853731060343300,6.90334326171875,-0.055637482553720474,-0.15987876057624817,0.20243993401527405
1782853731070327300,6.913327392578125,-0.013089489191770554,-0.1458100825548172,0.21826176345348358
1782853731080312300,6.923312255859375,-0.00977545790374279,-0.1822635531425476,0.21234166622161865
1782853731090296300,6.93329638671875,-0.01754949241876602,-0.24168479442596436,0.18328124284744263
1782853731100281600,6.943281494140625,-0.03335421532392502,-0.28719988465309143,0.13851486146450043
1782853731110266400,6.953266357421875,-0.04949882626533508,-0.3245600163936615,0.08625511825084686
1782853731120250400,6.96325048828125,-0.05354395508766174,-0.27223390340805054,0.04468614608049393
1782853731130235400,6.9732353515625,-0.011974938213825226,-0.15433602035045624,0.03982827439904213
1782853731140219400,6.983219482421875,0.06191468611359596,-0.029754914343357086,0.06572091579437256
1782853731150204400,6.993204345703125,0.13014540076255798,0.04682641103863716,0.1036539152264595
1782853731160188400,7.0031884765625,0.20269152522087097,0.07045391947031021,0.13551798462867737
1782853731170173400,7.01317333984375,0.2772560715675354,0.04530675709247589,0.15413214266300201
1782853731180157400,7.023157470703125,0.34875234961509705,-0.007612291257828474,0.14933229982852936
1782853731190142500,7.033142578125,0.4198928475379944,-0.04803747683763504,0.10881178081035614
1782853731200127500,7.04312744140625,0.4953438937664032,-0.09011626243591309,0.041918378323316574
1782853731210111500,7.053111572265625,0.5752543807029724,-0.15990813076496124,-0.02953929454088211
1782853731220096300,7.06309619140625,0.6566199064254761,-0.2550760805606842,-0.08541317284107208
1782853731230080300,7.073080322265625,0.7166891098022461,-0.3728277385234833,-0.11170362681150436
1782853731240065300,7.083065185546875,0.7560511231422424,-0.4571748673915863,-0.11305630952119827
1782853731250049300,7.09304931640625,0.7702209949493408,-0.5636062026023865,-0.11484329402446747
1782853731260034300,7.103034423828125,0.7582823634147644,-0.5976883172988892,-0.11390146613121033
1782853731270018300,7.113018310546875,0.7222095727920532,-0.5729107856750488,-0.10975731909275055
1782853731280003300,7.12300341796875,0.6666762828826904,-0.5200546979904175,-0.1109333336353302
1782853731289987300,7.1329873046875,0.5891122221946716,-0.42859694361686707,-0.12380358576774597
1782853731299972400,7.142972412109375,0.5098751187324524,-0.2891431152820587,-0.13285847008228302
1782853731309957400,7.152957275390625,0.44565141201019287,-0.1221887618303299,-0.13846255838871002
1782853731319941400,7.16294140625,0.4121059775352478,0.06632822751998901,-0.14575505256652832
1782853731329926100,7.172926025390625,0.39743784070014954,0.27144888043403625,-0.14843712747097015
1782853731339910100,7.18291015625,0.3873801529407501,0.4582594931125641,-0.1603979766368866
1782853731349895400,7.1928955078125,0.37754908204078674,0.565739095211029,-0.17986010015010834
1782853731359879200,7.202879150390625,0.35680440068244934,0.5927711725234985,-0.197658970952034
1782853731369864400,7.212864501953125,0.3381284475326538,0.5946260690689087,-0.2154981642961502
1782853731379848400,7.222848388671875,0.3296414613723755,0.5634379982948303,-0.23555602133274078
1782853731389833200,7.232833251953125,0.3223806321620941,0.502417802810669,-0.2546844184398651
1782853731399817200,7.242817138671875,0.3185778856277466,0.42469125986099243,-0.2609362006187439
1782853731409802200,7.25280224609375,0.3134446442127228,0.32541635632514954,-0.2507384121417999
1782853731419787300,7.262787353515625,0.314013808965683,0.2226237803697586,-0.21735265851020813
1782853731429771300,7.272771240234375,0.2996620237827301,0.15679629147052765,-0.1696317493915558
1782853731439756000,7.282756103515625,0.27619582414627075,0.13461261987686157,-0.12772563099861145
1782853731449740300,7.292740234375,0.2630813717842102,0.13747072219848633,-0.08835878223180771
1782853731459725000,7.30272509765625,0.2634568214416504,0.1514701247215271,-0.05849374085664749
1782853731469709000,7.312708984375,0.26601293683052063,0.13773512840270996,-0.051596689969301224
1782853731479694000,7.322694091796875,0.25782346725463867,0.07928848266601562,-0.04745597764849663
1782853731489678000,7.332677978515625,0.24124981462955475,0.03471435606479645,-0.03361872583627701
1782853731499663400,7.342663330078125,0.21514259278774261,-0.015453815460205078,0.0090718325227499
1782853731509647000,7.352647216796875,0.16806456446647644,-0.053158048540353775,0.07821175456047058
1782853731519632400,7.36263232421875,0.10765452682971954,-0.009056740440428257,0.15015627443790436
1782853731529617400,7.372617431640625,0.057849954813718796,0.1347861886024475,0.20271775126457214
1782853731539601400,7.382601318359375,0.050048671662807465,0.300514817237854,0.19748228788375854
1782853731549586200,7.392586181640625,0.08227105438709259,0.4387272894382477,0.1393800973892212
1782853731559570400,7.4025703125,0.12396714836359024,0.49586793780326843,0.029280591756105423
1782853731569555200,7.41255517578125,0.1470722109079361,0.5053269863128662,-0.1141229048371315
1782853731579539200,7.422539306640625,0.1734262853860855,0.46000489592552185,-0.24894192814826965
1782853731589524200,7.432524169921875,0.16970105469226837,0.45121219754219055,-0.23533983528614044
1782853731599508200,7.44250830078125,0.10505130887031555,0.16955465078353882,-0.06869805604219437
1782853731609493200,7.4524931640625,0.038590531796216965,-0.4309775233268738,-0.07896774262189865
1782853731619477200,7.462477294921875,-0.05864569544792175,-0.7393567562103271,-0.1264234334230423
1782853731629462300,7.472462158203125,-0.14801126718521118,-0.6927133798599243,-0.24490775167942047
1782853731639447300,7.482447265625,-0.24702589213848114,-0.5555166006088257,-0.3983919024467468
1782853731649431300,7.492431396484375,-0.34542036056518555,-0.445889413356781,-0.5683279633522034
1782853731659416300,7.502416259765625,-0.40252649784088135,-0.3546411693096161,-0.7155554294586182
1782853731669400300,7.512400390625,-0.4163624048233032,-0.23896941542625427,-0.7820950150489807
