time,seconds_elapsed,z,y,x
1782853701962128600,0.106128662109375,0.39716634154319763,-0.10765785723924637,0.1265515387058258
1782853701972112600,0.116112548828125,0.4338175654411316,-0.041148342192173004,0.2906337082386017
1782853701982097700,0.12609765625,0.46660882234573364,0.047673724591732025,0.4382235109806061
1782853701992082700,0.136082763671875,0.49157223105430603,0.12224303930997849,0.5216262340545654
1782853702002066700,0.146066650390625,0.4995310604572296,0.13861015439033508,0.5180249214172363
1782853702012051500,0.156051513671875,0.4954966604709625,0.09511087834835052,0.41711029410362244
1782853702022036700,0.16603662109375,0.48024389147758484,-0.00900646485388279,0.25877270102500916
1782853702032020700,0.176020751953125,0.4447101354598999,-0.12204140424728394,0.08051988482475281
1782853702042005800,0.186005859375,0.3781948387622833,-0.23910029232501984,-0.09050479531288147
1782853702051989800,0.19598974609375,0.31823909282684326,-0.3188669979572296,-0.22508710622787476
1782853702061974800,0.205974853515625,0.2826778292655945,-0.33524003624916077,-0.3135727345943451
1782853702071959800,0.215959716796875,0.27182385325431824,-0.2657400369644165,-0.36171284317970276
1782853702081943800,0.22594384765625,0.29479512572288513,-0.09641050547361374,-0.4027183949947357
1782853702091928800,0.2359287109375,0.3185768723487854,0.09837362915277481,-0.46692827343940735
1782853702101913600,0.24591357421875,0.31407982110977173,0.24077056348323822,-0.588660478591919
1782853702111897600,0.255897705078125,0.26767638325691223,0.2753317654132843,-0.7551000714302063
1782853702121882600,0.265882568359375,0.20105469226837158,0.22850951552391052,-0.9250447154045105
1782853702131866600,0.27586669921875,0.13447168469429016,0.07761189341545105,-1.0338014364242554
1782853702141851600,0.2858515625,0.06813371181488037,-0.17303912341594696,-1.0470921993255615
1782853702151836700,0.295836669921875,0.009754831902682781,-0.40904179215431213,-0.9452154040336609
1782853702161820700,0.305820556640625,-0.03988194838166237,-0.5282737016677856,-0.753596305847168
1782853702171805700,0.3158056640625,-0.06317050009965897,-0.5279922485351562,-0.5079820156097412
1782853702181790500,0.32579052734375,-0.04979653283953667,-0.44838303327560425,-0.2392682284116745
1782853702191774700,0.335774658203125,0.015122277662158012,-0.30081912875175476,0.007841951213777065
1782853702201759500,0.345759521484375,0.1108761802315712,-0.09088616818189621,0.20310164988040924
1782853702211744800,0.355744873046875,0.208668515086174,0.1273185908794403,0.3168652355670929
1782853702221728800,0.365728759765625,0.284654438495636,0.31543445587158203,0.357439786195755
1782853702231713800,0.3757138671875,0.32274219393730164,0.47957146167755127,0.3320241868495941
1782853702241697800,0.38569775390625,0.3118106722831726,0.6090670228004456,0.2284073382616043
1782853702251682800,0.395682861328125,0.2610500156879425,0.6882973909378052,0.06478404998779297
1782853702261667800,0.405667724609375,0.18731874227523804,0.7060595154762268,-0.12453114986419678
1782853702271651800,0.41565185546875,0.10279453545808792,0.6716205477714539,-0.3047712445259094
1782853702281636600,0.42563671875,0.013320177793502808,0.6148207783699036,-0.43828085064888
1782853702291621600,0.43562158203125,-0.06675069034099579,0.5686905980110168,-0.5110349655151367
1782853702301605600,0.445605712890625,-0.13780829310417175,0.5267882943153381,-0.5272950530052185
1782853702311590700,0.455590576171875,-0.21289531886577606,0.46839162707328796,-0.5187052488327026
1782853702321574700,0.46557470703125,-0.28538522124290466,0.42112135887145996,-0.4960460960865021
1782853702331559700,0.4755595703125,-0.34954798221588135,0.4149516224861145,-0.4848456382751465
1782853702341544700,0.485544677734375,-0.4079667031764984,0.4312085807323456,-0.4985167682170868
1782853702351528700,0.49552880859375,-0.4421129524707794,0.41887256503105164,-0.5273494720458984
1782853702361513200,0.50551318359375,-0.45155829191207886,0.3905802071094513,-0.5706104040145874
1782853702371498000,0.515498046875,-0.4338988661766052,0.34971240162849426,-0.6155698895454407
1782853702381482200,0.525482177734375,-0.38867539167404175,0.2853243350982666,-0.6659626364707947
1782853702391467000,0.535467041015625,-0.329435259103775,0.2033436894416809,-0.7096083760261536
1782853702401451000,0.545450927734375,-0.27191704511642456,0.12720607221126556,-0.7461305856704712
1782853702411436000,0.55543603515625,-0.23857451975345612,0.06446173042058945,-0.7710855007171631
1782853702421421300,0.56542138671875,-0.23918479681015015,0.012898493558168411,-0.7828524708747864
1782853702431405300,0.5754052734375,-0.2637127637863159,-0.03848613426089287,-0.7819304466247559
1782853702441390300,0.585390380859375,-0.3095446825027466,-0.1211240217089653,-0.7732354998588562
1782853702451375400,0.595375244140625,-0.3616829812526703,-0.23340821266174316,-0.7557260394096375
1782853702461359400,0.605359375,-0.4143846333026886,-0.35284268856048584,-0.7112575769424438
1782853702471344000,0.61534423828125,-0.45035621523857117,-0.4156959354877472,-0.6401487588882446
1782853702481328000,0.625328125,-0.47017210721969604,-0.4051945209503174,-0.5603958964347839
1782853702491313200,0.635313232421875,-0.46998780965805054,-0.34502437710762024,-0.4947556257247925
1782853702501298200,0.645298095703125,-0.4546564519405365,-0.261376291513443,-0.46731773018836975
1782853702511282200,0.6552822265625,-0.4146411418914795,-0.1713060587644577,-0.4756332039833069
1782853702521267200,0.66526708984375,-0.37741169333457947,-0.08454202860593796,-0.504357635974884
1782853702531252200,0.675252197265625,-0.35710373520851135,-0.021817663684487343,-0.5243739485740662
1782853702541236200,0.685236328125,-0.3488152027130127,0.055009473115205765,-0.5105084180831909
1782853702551221200,0.69522119140625,-0.34304091334342957,0.11581955850124359,-0.45009756088256836
1782853702561205200,0.705205322265625,-0.33706772327423096,0.1552971601486206,-0.3553994596004486
1782853702571190000,0.71518994140625,-0.3256411552429199,0.18113595247268677,-0.25394126772880554
1782853702581175000,0.725175048828125,-0.30147746205329895,0.182029590010643,-0.13977593183517456
1782853702591159000,0.735158935546875,-0.2735302746295929,0.17461001873016357,-0.017301147803664207
1782853702601144000,0.74514404296875,-0.2595961093902588,0.16482605040073395,0.08786514401435852
1782853702611129300,0.75512939453125,-0.2595846354961395,0.11210238933563232,0.14421844482421875
1782853702621113300,0.76511328125,-0.27036604285240173,-0.003230641596019268,0.1573285013437271
1782853702631098400,0.775098388671875,-0.2771448493003845,-0.15007521212100983,0.14039158821105957
1782853702641082400,0.785082275390625,-0.2780275046825409,-0.2807800769805908,0.11820926517248154
1782853702651067100,0.795067138671875,-0.28977710008621216,-0.37007611989974976,0.08640658855438232
1782853702661052200,0.80505224609375,-0.3057827949523926,-0.39680132269859314,0.04061465710401535
1782853702671036200,0.8150361328125,-0.31058502197265625,-0.3202812373638153,-0.024642378091812134
1782853702681021200,0.825021240234375,-0.29488298296928406,-0.18590539693832397,-0.11132350564002991
1782853702691006200,0.835006103515625,-0.2744554579257965,-0.02222912199795246,-0.22734251618385315
1782853702700990200,0.844990234375,-0.24137133359909058,0.07408301532268524,-0.37329259514808655
1782853702710975200,0.854975341796875,-0.21265952289104462,0.04741758108139038,-0.5208131074905396
1782853702720960300,0.864960205078125,-0.1858234852552414,-0.06835173070430756,-0.6484278440475464
1782853702730944300,0.8749443359375,-0.17004026472568512,-0.20815624296665192,-0.7218642234802246
1782853702740929000,0.884928955078125,-0.16242584586143494,-0.35801708698272705,-0.7002533078193665
1782853702750913000,0.8949130859375,-0.19364820420742035,-0.43903976678848267,-0.5929303169250488
1782853702760898000,0.90489794921875,-0.2527772784233093,-0.47137969732284546,-0.4302360415458679
1782853702770883000,0.914883056640625,-0.32461071014404297,-0.47854921221733093,-0.2475285679101944
1782853702780867000,0.9248671875,-0.37686848640441895,-0.44141560792922974,-0.0872260183095932
1782853702790852000,0.93485205078125,-0.38491442799568176,-0.3759990632534027,0.025430485606193542
1782853702800837400,0.94483740234375,-0.34417924284935,-0.2942456603050232,0.08425207436084747
1782853702810821400,0.9548212890625,-0.2837715744972229,-0.2123880684375763,0.09750422835350037
1782853702820806100,0.96480615234375,-0.22956234216690063,-0.15385961532592773,0.07517093420028687
1782853702830790400,0.974790283203125,-0.1640552431344986,-0.14436917006969452,0.036658696830272675
1782853702840775200,0.984775146484375,-0.07521108537912369,-0.18521611392498016,-0.006359354592859745
1782853702850760200,0.99476025390625,0.018092768266797066,-0.2377389818429947,-0.047076158225536346
1782853702860744200,1.004744140625,0.10273119062185287,-0.28879088163375854,-0.06985921412706375
1782853702870729200,1.014729248046875,0.16246163845062256,-0.3672095239162445,-0.06254564225673676
1782853702880714200,1.02471435546875,0.20557747781276703,-0.4599069654941559,0.008576017804443836
1782853702890698200,1.0346982421875,0.24296745657920837,-0.5521771907806396,0.13749511539936066
1782853702900683300,1.044683349609375,0.26099374890327454,-0.6285369992256165,0.309512734413147
1782853702910668000,1.05466796875,0.2629133462905884,-0.691097617149353,0.48799246549606323
1782853702920652000,1.064652099609375,0.24704203009605408,-0.705912172794342,0.6370593905448914
1782853702930637000,1.074636962890625,0.21946074068546295,-0.6412658095359802,0.7243319749832153
1782853702940621000,1.08462109375,0.1853562444448471,-0.520908534526825,0.7337518930435181
1782853702950606000,1.094606201171875,0.16311725974082947,-0.3759665787220001,0.6618462800979614
1782853702960591000,1.104591064453125,0.1611778289079666,-0.21533145010471344,0.523341178894043
1782853702970575000,1.1145751953125,0.1842818260192871,-0.08973650634288788,0.3576642870903015
1782853702980560400,1.124560302734375,0.23005050420761108,-0.006418992765247822,0.22385506331920624
1782853702990545200,1.134545166015625,0.27436310052871704,0.05075028911232948,0.15693143010139465
1782853703000529400,1.144529296875,0.30400508642196655,0.08999353647232056,0.15253126621246338
1782853703010514200,1.15451416015625,0.31886792182922363,0.13907772302627563,0.18753692507743835
1782853703020499200,1.164499267578125,0.3266963064670563,0.17672096192836761,0.23167423903942108
1782853703030483200,1.174483154296875,0.3304058015346527,0.17816226184368134,0.2571103274822235
1782853703040468200,1.18446826171875,0.33096933364868164,0.14431370794773102,0.26574447751045227
1782853703050452200,1.1944521484375,0.3352855145931244,0.06777419149875641,0.26315799355506897
1782853703060437200,1.204437255859375,0.33836421370506287,-0.042205605655908585,0.26842349767684937
1782853703070422300,1.21442236328125,0.34011393785476685,-0.15296193957328796,0.2838495969772339
1782853703080406300,1.22440625,0.33686864376068115,-0.23498542606830597,0.30687403678894043
1782853703090391000,1.23439111328125,0.32888877391815186,-0.2731437385082245,0.3293021023273468
1782853703100376000,1.2443759765625,0.3164692521095276,-0.2613808214664459,0.333368718624115
1782853703110360000,1.254360107421875,0.28920167684555054,-0.2096071094274521,0.3128620982170105
1782853703120345000,1.264344970703125,0.2498258501291275,-0.13033844530582428,0.26350393891334534
1782853703130330000,1.274330078125,0.19659805297851562,-0.027092760428786278,0.18094566464424133
1782853703140314000,1.284314208984375,0.13357430696487427,0.07086486369371414,0.0747547298669815
1782853703150299100,1.294299072265625,0.09221915155649185,0.16077184677124023,-0.010883480310440063
1782853703160284200,1.3042841796875,0.07439824193716049,0.243549644947052,-0.05565012991428375
1782853703170268400,1.314268310546875,0.0706450492143631,0.3068487048149109,-0.046884335577487946
1782853703180253200,1.324253173828125,0.06921811401844025,0.3473091125488281,-0.0007390286773443222
1782853703190237200,1.3342373046875,0.07668561488389969,0.39043474197387695,0.08411195129156113
1782853703200222200,1.34422216796875,0.08944260329008102,0.4350934326648712,0.1738363802433014
1782853703210207200,1.354207275390625,0.09895940870046616,0.43111708760261536,0.23033852875232697
1782853703220191200,1.364191162109375,0.11830276995897293,0.36051785945892334,0.23456908762454987
1782853703230176300,1.37417626953125,0.1428278237581253,0.23709818720817566,0.19006739556789398
1782853703240161300,1.384161376953125,0.16638511419296265,0.0638408437371254,0.11474037170410156
1782853703250145300,1.394145263671875,0.19314774870872498,-0.15131327509880066,0.03897157311439514
1782853703260130000,1.404130126953125,0.20799429714679718,-0.3207448124885559,-0.0036329771392047405
1782853703270115000,1.414114990234375,0.18546874821186066,-0.4303610324859619,-0.03398262709379196
1782853703280099000,1.42409912109375,0.13671964406967163,-0.475580096244812,-0.058882467448711395
1782853703290084000,1.434083984375,0.07614259421825409,-0.4487716555595398,-0.08656975626945496
1782853703300069000,1.444069091796875,0.019245680421590805,-0.3449936807155609,-0.1224866658449173
1782853703310053000,1.45405322265625,-0.04210502654314041,-0.20154757797718048,-0.1869034618139267
1782853703320038100,1.4640380859375,-0.10699991881847382,-0.09463926404714584,-0.28280749917030334
1782853703330023200,1.474023193359375,-0.1645236611366272,-0.032244861125946045,-0.4133114516735077
1782853703340007400,1.48400732421875,-0.1935102343559265,-0.007044783793389797,-0.5382360219955444
1782853703349992200,1.4939921875,-0.21563737094402313,0.02209552749991417,-0.632120668888092
1782853703359977000,1.50397705078125,-0.2506900131702423,0.04370201379060745,-0.6833351850509644
1782853703369962000,1.5139619140625,-0.31406497955322266,0.06987263262271881,-0.6832718253135681
1782853703379947000,1.523947021484375,-0.37142759561538696,0.10470026731491089,-0.6355613470077515
1782853703389931000,1.533930908203125,-0.4091440737247467,0.15108133852481842,-0.538532018661499
1782853703399916000,1.543916015625,-0.40058109164237976,0.21451298892498016,-0.42064735293388367
1782853703409900800,1.55390087890625,-0.37035900354385376,0.26525846123695374,-0.28894898295402527
1782853703419884800,1.563884765625,-0.3449392318725586,0.28221121430397034,-0.1688661128282547
1782853703429869800,1.573869873046875,-0.3351188004016876,0.21272750198841095,-0.09044428169727325
1782853703439855000,1.583855224609375,-0.33202528953552246,0.05872040241956711,-0.05856632441282272
1782853703449838800,1.5938388671875,-0.33271583914756775,-0.13540193438529968,-0.05144210159778595
1782853703459824000,1.60382421875,-0.33752673864364624,-0.2632463872432709,-0.04414649307727814
1782853703469809200,1.61380908203125,-0.36158624291419983,-0.25222358107566833,-0.00743109080940485
1782853703479793200,1.623793212890625,-0.4014015793800354,-0.08043203502893448,0.052713923156261444
1782853703489778000,1.63377783203125,-0.45589330792427063,0.1554875522851944,0.11075911670923233
1782853703499763000,1.643762939453125,-0.49765369296073914,0.3701535165309906,0.13905923068523407
1782853703509747000,1.653746826171875,-0.5187238454818726,0.5405284762382507,0.1447024643421173
1782853703519732000,1.66373193359375,-0.529001772403717,0.6909546852111816,0.13476695120334625
1782853703529716000,1.673716064453125,-0.5303823351860046,0.8177992105484009,0.11770300567150116
1782853703539701000,1.683700927734375,-0.5242108702659607,0.8996187448501587,0.09613188356161118
1782853703549686000,1.69368603515625,-0.5070691704750061,0.9171186685562134,0.06851250678300858
1782853703559670000,1.703669921875,-0.47067496180534363,0.8328567743301392,0.031805891543626785
1782853703569655000,1.713655029296875,-0.422119677066803,0.698226273059845,0.0016812779940664768
1782853703579639800,1.723639892578125,-0.3645181953907013,0.5602449774742126,-0.03016209974884987
1782853703589623800,1.733623779296875,-0.32332494854927063,0.45523521304130554,-0.04863192141056061
1782853703599608800,1.74360888671875,-0.2891193628311157,0.38276952505111694,-0.05534328520298004
1782853703609593900,1.75359375,-0.2707294523715973,0.3287864327430725,-0.05694730579853058
1782853703619577900,1.763577880859375,-0.2696123421192169,0.2751515209674835,-0.06159050390124321
1782853703629563100,1.773563232421875,-0.272038996219635,0.1927189826965332,-0.07492388784885406
1782853703639548200,1.783548095703125,-0.2682867646217346,0.08459076285362244,-0.07083108276128769
1782853703649532200,1.7935322265625,-0.26830965280532837,-0.01297706738114357,-0.04302634671330452
1782853703659517000,1.803516845703125,-0.2697596848011017,-0.07606199383735657,0.0010226783342659473
1782853703669502000,1.813501953125,-0.27924108505249023,-0.12627802789211273,0.05509389936923981
1782853703679486000,1.82348583984375,-0.2863517105579376,-0.1742027997970581,0.09932978451251984
1782853703689471000,1.833470947265625,-0.28508591651916504,-0.22463694214820862,0.1193932369351387
1782853703699456000,1.8434560546875,-0.27363017201423645,-0.26673653721809387,0.1101226806640625
1782853703709440000,1.85343994140625,-0.20341354608535767,-0.21625950932502747,0.0755082443356514
1782853703719425000,1.863425048828125,-0.1288994997739792,-0.08495548367500305,-0.002623429987579584
1782853703729410000,1.87341015625,-0.13176585733890533,-0.04686668887734413,-0.13670852780342102
1782853703739394000,1.88339404296875,-0.1839408427476883,-0.059937912970781326,-0.2546720504760742
1782853703749378800,1.89337890625,-0.2198900431394577,0.006988657638430595,-0.30396103858947754
1782853703759363800,1.90336376953125,-0.21025772392749786,0.14694559574127197,-0.2611164450645447
1782853703769347800,1.913347900390625,-0.16047817468643188,0.2901879847049713,-0.17416054010391235
1782853703779332900,1.923332763671875,-0.04378880187869072,0.5329646468162537,-0.07459557801485062
1782853703789318100,1.933318115234375,0.026570580899715424,0.550506591796875,0.013487409800291061
1782853703799302000,1.943302001953125,0.0123657938092947,0.5317135453224182,0.14393934607505798
1782853703809287200,1.953287109375,-0.0499604307115078,0.5476155281066895,0.30616047978401184
1782853703819271200,1.963271240234375,-0.1277790069580078,0.5274477005004883,0.46008047461509705
1782853703829256000,1.973255859375,-0.1881299763917923,0.3946172297000885,0.5772669911384583
1782853703839241000,1.983240966796875,-0.2218770533800125,0.18669402599334717,0.63396155834198
1782853703849225000,1.993224853515625,-0.21689561009407043,-0.023374784737825394,0.6352676153182983
1782853703859210000,2.0032099609375,-0.1884915679693222,-0.13352474570274353,0.5983915328979492
1782853703869195000,2.013195068359375,-0.13635194301605225,-0.12153679877519608,0.5563085079193115
1782853703879179000,2.023178955078125,-0.07321731746196747,-0.031075937673449516,0.5102266669273376
1782853703889164000,2.0331640625,-0.013094059191644192,0.04519273340702057,0.453173965215683
1782853703899149000,2.043149169921875,0.025820735841989517,0.10885719954967499,0.3645772337913513
1782853703909133000,2.053133056640625,0.03537136688828468,0.1682843118906021,0.24611212313175201
1782853703919117800,2.063117919921875,0.013259733095765114,0.2214755415916443,0.10466048121452332
1782853703929102800,2.073102783203125,-0.027219515293836594,0.26107460260391235,-0.04741879180073738
1782853703939086800,2.0830869140625,-0.04748550429940224,0.30910471081733704,-0.19582389295101166
1782853703949072000,2.09307177734375,-0.03428954258561134,0.38361117243766785,-0.2843018174171448
1782853703959057200,2.10305712890625,0.00808399822562933,0.45355844497680664,-0.2945323884487152
1782853703969041000,2.113041015625,0.07014869898557663,0.4936498999595642,-0.24014237523078918
1782853703979026200,2.123026123046875,0.13677668571472168,0.4596521556377411,-0.15163327753543854
1782853703989011000,2.133010986328125,0.21173614263534546,0.36005711555480957,-0.05344066023826599
1782853703998995000,2.142994873046875,0.3028879761695862,0.2187797576189041,0.034656040370464325
1782853704008980000,2.15297998046875,0.398246705532074,0.06853566318750381,0.10552968829870224
1782853704018965000,2.162965087890625,0.48318910598754883,-0.07075394690036774,0.1596173346042633
1782853704028949000,2.172948974609375,0.5431067943572998,-0.19460265338420868,0.2086448073387146
1782853704038934000,2.18293408203125,0.570516049861908,-0.32771915197372437,0.2579452395439148
1782853704048919000,2.1929189453125,0.5712204575538635,-0.45202380418777466,0.3093583583831787
1782853704058903000,2.202903076171875,0.5648146271705627,-0.5320228934288025,0.37161123752593994
1782853704068888000,2.21288818359375,0.5588052272796631,-0.5962184071540833,0.4490644931793213
1782853704078872800,2.222872802734375,0.5506914258003235,-0.6664319634437561,0.5431643128395081
1782853704088856800,2.23285693359375,0.5135011672973633,-0.7808150053024292,0.6353397965431213
1782853704098841900,2.242841796875,0.4393339157104492,-0.9094706177711487,0.7086358070373535
1782853704108827000,2.252826904296875,0.3381955623626709,-0.9407981634140015,0.7468407154083252
1782853704118811000,2.262810791015625,0.25310155749320984,-0.8632966876029968,0.7711570262908936
1782853704128796000,2.2727958984375,0.1956678330898285,-0.706587553024292,0.7792471647262573
1782853704138781200,2.28278125,0.15906059741973877,-0.5658982396125793,0.7651155591011047
1782853704148765200,2.29276513671875,0.13235841691493988,-0.4550319015979767,0.755220353603363
1782853704158750000,2.30275,0.12308026850223541,-0.31170955300331116,0.7586290240287781
1782853704168735000,2.31273486328125,0.1508122980594635,-0.1504966765642166,0.7622711658477783
1782853704178719000,2.322718994140625,0.21997420489788055,0.014612579718232155,0.7687024474143982
1782853704188704000,2.3327041015625,0.30951419472694397,0.11904444545507431,0.7540332078933716
1782853704198688000,2.34268798828125,0.3813287019729614,0.11423782259225845,0.6965036988258362
1782853704208673000,2.352673095703125,0.38884735107421875,0.006025598384439945,0.591687798500061
1782853704218658000,2.362657958984375,0.36965030431747437,-0.19449172914028168,0.4829745888710022
1782853704228642000,2.37264208984375,0.35964134335517883,-0.4506992995738983,0.4385136365890503
1782853704238627000,2.382626953125,0.353767454624176,-0.6734731197357178,0.4587700366973877
1782853704248611800,2.39261181640625,0.3400108814239502,-0.7900599241256714,0.5362756848335266
1782853704258595800,2.402595947265625,0.3243234157562256,-0.7631593942642212,0.6721213459968567
1782853704268580900,2.412580810546875,0.3093881607055664,-0.5351406335830688,0.8112438321113586
1782853704278566000,2.42256591796875,0.2924850881099701,-0.1355839967727661,0.9160181283950806
1782853704288550000,2.4325498046875,0.28861871361732483,0.26853206753730774,0.9568531513214111
1782853704298535000,2.442534912109375,0.2795441746711731,0.6554231643676758,0.9146701693534851
1782853704308520200,2.452520263671875,0.2844316065311432,1.0531355142593384,0.7942899465560913
1782853704318504200,2.462504150390625,0.3452483117580414,1.1322704553604126,0.6326139569282532
1782853704328489000,2.472489013671875,0.38328519463539124,0.9273809194564819,0.48850369453430176
1782853704338474000,2.482473876953125,0.3561975657939911,0.7066450715065002,0.42287880182266235
1782853704348458000,2.4924580078125,0.2925810217857361,0.6175767183303833,0.42412567138671875
1782853704358446600,2.502446533203125,0.22507473826408386,0.6580970883369446,0.47274667024612427
1782853704368431600,2.512431640625,0.17876556515693665,0.7838507890701294,0.5006092190742493
1782853704378415600,2.52241552734375,0.17401021718978882,0.918540894985199,0.4633949398994446
1782853704388400600,2.532400634765625,0.21545939147472382,1.001533031463623,0.3641117513179779
1782853704398385400,2.542385498046875,0.3008166253566742,0.9530783295631409,0.22985801100730896
1782853704408369700,2.55236962890625,0.3836025893688202,0.7752960920333862,0.08150209486484528
1782853704418354400,2.5623544921875,0.43484222888946533,0.5528234243392944,-0.04914425313472748
1782853704428339500,2.57233935546875,0.4319596290588379,0.3446052670478821,-0.16996361315250397
1782853704438323500,2.582323486328125,0.3544654846191406,0.12596556544303894,-0.2970339059829712
1782853704448308500,2.59230859375,0.2307451367378235,-0.061634697020053864,-0.4186146855354309
1782853704458293800,2.602293701171875,0.07507167756557465,-0.18438197672367096,-0.5621267557144165
1782853704468277500,2.612277587890625,-0.09433785825967789,-0.25352510809898376,-0.7089383006095886
1782853704478262800,2.6222626953125,-0.2622355818748474,-0.2594854235649109,-0.8293308019638062
1782853704488247600,2.63224755859375,-0.4143196642398834,-0.1933354139328003,-0.8913763165473938
1782853704498231600,2.6422314453125,-0.5529441833496094,-0.11958809196949005,-0.8879970908164978
1782853704508216600,2.652216552734375,-0.6640872359275818,-0.061460867524147034,-0.8222692012786865
1782853704518201600,2.66220166015625,-0.7381013035774231,-0.020280351862311363,-0.7140955924987793
1782853704528185600,2.672185546875,-0.75813889503479,0.0018100365996360779,-0.5788437724113464
1782853704538170600,2.682170654296875,-0.7215175032615662,-0.008570121601223946,-0.43616586923599243
1782853704548155600,2.69215576171875,-0.6467881202697754,-0.04742724075913429,-0.30021682381629944
1782853704558139600,2.7021396484375,-0.5265669226646423,-0.08287140727043152,-0.1818486750125885
1782853704568124400,2.71212451171875,-0.3895837664604187,-0.13385896384716034,-0.0879213809967041
1782853704578109400,2.722109375,-0.27511221170425415,-0.2137296199798584,-0.04229731485247612
1782853704588093400,2.732093505859375,-0.194580078125,-0.3210422396659851,-0.038540128618478775
1782853704598078500,2.742078369140625,-0.15059635043144226,-0.391792356967926,-0.061144426465034485
1782853704608063500,2.7520634765625,-0.12718316912651062,-0.3978702425956726,-0.08267874270677567
1782853704618047500,2.762047607421875,-0.133914977312088,-0.3412392735481262,-0.09309744089841843
1782853704628032500,2.772032470703125,-0.15903258323669434,-0.23688434064388275,-0.08980178087949753
1782853704638017500,2.782017578125,-0.21343374252319336,-0.09518644213676453,-0.09356386214494705
1782853704648001800,2.792001708984375,-0.2731980085372925,0.07652352750301361,-0.0976715162396431
1782853704657986600,2.801986572265625,-0.314884752035141,0.24833522737026215,-0.11624200642108917
1782853704667970600,2.811970458984375,-0.33613115549087524,0.3789510428905487,-0.1439545899629593
1782853704677955600,2.82195556640625,-0.34390637278556824,0.46263396739959717,-0.18366754055023193
1782853704687940600,2.831940673828125,-0.32307669520378113,0.4820667803287506,-0.2278083711862564
1782853704697924600,2.841924560546875,-0.2927470803260803,0.4230630099773407,-0.28140780329704285
1782853704707909600,2.85190966796875,-0.25023239850997925,0.2931089997291565,-0.35027584433555603
1782853704717894700,2.861894775390625,-0.2050713449716568,0.12201953679323196,-0.4162784814834595
1782853704727878700,2.871878662109375,-0.1614261269569397,-0.06447070837020874,-0.45671698451042175
1782853704737863400,2.881863525390625,-0.09866366535425186,-0.22984281182289124,-0.436102956533432
1782853704747848400,2.891848388671875,-0.035505469888448715,-0.3346208930015564,-0.35228899121284485
1782853704757832400,2.90183251953125,0.03821343928575516,-0.38129356503486633,-0.22011180222034454
1782853704767817500,2.9118173828125,0.10659915208816528,-0.382963627576828,-0.06886795163154602
1782853704777802500,2.921802490234375,0.15564318001270294,-0.34929224848747253,0.06120004877448082
1782853704787786500,2.931786376953125,0.17803263664245605,-0.3029763996601105,0.13870656490325928
1782853704797771500,2.941771484375,0.18777792155742645,-0.272403746843338,0.13782727718353271
1782853704807756500,2.951756591796875,0.1896117776632309,-0.26677194237709045,0.07296492904424667
1782853704817740800,2.96174072265625,0.19153502583503723,-0.27672329545021057,-0.03563062846660614
1782853704827725600,2.9717255859375,0.17526763677597046,-0.32120180130004883,-0.1646525263786316
1782853704837710600,2.981710693359375,0.14656813442707062,-0.39340367913246155,-0.2868458330631256
1782853704847694600,2.991694580078125,0.11188766360282898,-0.473620742559433,-0.409387469291687
1782853704857679600,3.0016796875,0.07127688825130463,-0.5174292922019958,-0.5229969024658203
1782853704867664600,3.01166455078125,0.047842931002378464,-0.49847182631492615,-0.6103320717811584
1782853704877648600,3.021648681640625,0.05256849527359009,-0.40785500407218933,-0.6401965618133545
1782853704887633700,3.031633544921875,0.07410095632076263,-0.27272993326187134,-0.5937547087669373
1782853704897618400,3.041618408203125,0.08960025012493134,-0.10378475487232208,-0.4737834930419922
1782853704907602400,3.0516025390625,0.08115589618682861,0.04774085432291031,-0.29780179262161255
1782853704917587500,3.06158740234375,0.04724693298339844,0.1403924971818924,-0.10539798438549042
1782853704927572500,3.071572509765625,0.0007159169763326645,0.17583012580871582,0.06665819883346558
1782853704937556500,3.081556396484375,-0.03308271989226341,0.15312643349170685,0.16866852343082428
1782853704947541500,3.09154150390625,-0.03716747835278511,0.1272764652967453,0.2191908210515976
1782853704957526500,3.101526611328125,-0.035887736827135086,0.11949555575847626,0.22500577569007874
1782853704967510500,3.111510498046875,-0.03463045880198479,0.09255101531744003,0.17997358739376068
1782853704977495600,3.12149560546875,-0.0303854551166296,0.011966591700911522,0.09768711030483246
1782853704987480600,3.13148046875,-0.017232367768883705,-0.11181926727294922,0.023974807932972908
1782853704997464600,3.141464599609375,0.011855465359985828,-0.20402123034000397,-0.014192045666277409
1782853705007449600,3.15144970703125,0.04418943449854851,-0.23107628524303436,0.005078321322798729
1782853705017434600,3.1614345703125,0.07467301189899445,-0.15195125341415405,0.08072870224714279
1782853705027418600,3.171418701171875,0.09788192808628082,-0.012854354456067085,0.1827528029680252
1782853705037403600,3.181403564453125,0.11618748307228088,0.10344944149255753,0.25875407457351685
1782853705047387600,3.1913876953125,0.1206195130944252,0.13418179750442505,0.261726438999176
1782853705057372700,3.20137255859375,0.10697334259748459,0.1230546310544014,0.18908700346946716
1782853705067357400,3.211357421875,0.08146025985479355,0.10644929111003876,0.060619041323661804
1782853705077341400,3.221341552734375,0.04602174088358879,0.042624857276678085,-0.08703430742025375
1782853705087326500,3.231326416015625,0.009931914508342743,-0.07277178019285202,-0.2312580645084381
1782853705097311500,3.2413115234375,-0.00559140183031559,-0.17123943567276,-0.3172260522842407
1782853705107295500,3.25129541015625,0.005131283309310675,-0.1910456269979477,-0.35076671838760376
1782853705117280500,3.261280517578125,0.034315675497055054,-0.1270858198404312,-0.33746546506881714
1782853705127265500,3.271265625,0.07240474224090576,-0.032140400260686874,-0.3054542541503906
1782853705137249500,3.28124951171875,0.11706557869911194,0.029898080974817276,-0.27819618582725525
1782853705147234600,3.291234619140625,0.17423006892204285,0.016307173296809196,-0.2693222761154175
1782853705157219600,3.301219482421875,0.2354554533958435,-0.06498941779136658,-0.27465999126434326
1782853705167203600,3.31120361328125,0.30615198612213135,-0.21235597133636475,-0.2726844549179077
1782853705177188600,3.321188720703125,0.3922871947288513,-0.3736737370491028,-0.23534712195396423
1782853705187173600,3.331173583984375,0.4796641767024994,-0.508459210395813,-0.1639735996723175
1782853705197157600,3.34115771484375,0.5596502423286438,-0.6037059426307678,-0.05263125151395798
1782853705207142700,3.351142578125,0.6091693043708801,-0.65614914894104,0.059240952134132385
1782853705217127700,3.361127685546875,0.6218413710594177,-0.67250657081604,0.1507943719625473
1782853705227111700,3.371111572265625,0.5924723148345947,-0.6486268043518066,0.1978207379579544
1782853705237096400,3.381096435546875,0.5319666862487793,-0.5777762532234192,0.1794879287481308
1782853705247081500,3.39108154296875,0.4602232277393341,-0.4593808948993683,0.10786405950784683
1782853705257065500,3.4010654296875,0.37212538719177246,-0.3118303716182709,0.005570146255195141
1782853705267050500,3.411050537109375,0.29052427411079407,-0.1686151623725891,-0.09092123806476593
1782853705277035500,3.421035400390625,0.2213485836982727,-0.046187154948711395,-0.14974918961524963
1782853705287019500,3.43101953125,0.16475161910057068,0.07169100642204285,-0.17236661911010742
1782853705297004500,3.441004638671875,0.1336275339126587,0.15541474521160126,-0.1708698570728302
1782853705306988500,3.450988525390625,0.12718242406845093,0.20719832181930542,-0.1596968173980713
1782853705316973600,3.4609736328125,0.1581851840019226,0.22656475007534027,-0.13037598133087158
1782853705326958600,3.47095849609375,0.20826806128025055,0.2213718444108963,-0.08983068913221359
1782853705336942600,3.480942626953125,0.26016107201576233,0.17715436220169067,-0.024046432226896286
1782853705346927600,3.490927734375,0.2790146470069885,0.1174500361084938,0.03857087716460228
1782853705356908000,3.500907958984375,0.26382556557655334,0.045560337603092194,0.07530047744512558
1782853705366892000,3.51089208984375,0.22449763119220734,-0.035908687859773636,0.07740144431591034
1782853705376877000,3.520876953125,0.19231729209423065,-0.11907749623060226,0.06045425310730934
1782853705386862000,3.530862060546875,0.16888999938964844,-0.17647847533226013,0.051800843328237534
1782853705396846000,3.54084619140625,0.14429616928100586,-0.1759963482618332,0.06782956421375275
1782853705406831000,3.5508310546875,0.12243427336215973,-0.1250537931919098,0.09239855408668518
1782853705416815900,3.56081591796875,0.09924380481243134,-0.04502710700035095,0.11043009161949158
1782853705426800000,3.570800048828125,0.06974823027849197,0.039007075130939484,0.08985903859138489
1782853705436785200,3.58078515625,0.04407866671681404,0.09316165000200272,0.02291679196059704
1782853705446770200,3.590770263671875,0.02825229987502098,0.10638211667537689,-0.06906586140394211
1782853705456754200,3.600754150390625,0.013562491163611412,0.09210480004549026,-0.16332592070102692
1782853705466739200,3.6107392578125,-0.0022199340164661407,0.08070966601371765,-0.2451009452342987
1782853705476724200,3.62072412109375,-0.028430253267288208,0.09764277189970016,-0.2911936938762665
1782853705486708200,3.630708251953125,-0.04132048785686493,0.14528486132621765,-0.28951218724250793
1782853705496693200,3.640693359375,-0.046786051243543625,0.1776532083749771,-0.22308242321014404
1782853705506678000,3.650677978515625,-0.053764063864946365,0.19701385498046875,-0.13560156524181366
1782853705516662000,3.660662109375,-0.04196600243449211,0.18055644631385803,-0.041369859129190445
1782853705526647000,3.67064697265625,-0.019546981900930405,0.1397903859615326,0.03536513075232506
1782853705536632000,3.680632080078125,0.011766084469854832,0.08982402831315994,0.0877571702003479
1782853705546616000,3.690615966796875,0.05701611936092377,0.02716490812599659,0.1120995283126831
1782853705556601000,3.70060107421875,0.10059589892625809,-0.06384839117527008,0.10336292535066605
1782853705566585000,3.710585205078125,0.12508898973464966,-0.18554580211639404,0.06318408250808716
1782853705576570000,3.720570068359375,0.13910341262817383,-0.2942962348461151,-0.004214863292872906
1782853705586555000,3.730554931640625,0.14795894920825958,-0.3546231985092163,-0.08754783868789673
1782853705596539100,3.7405390625,0.15661559998989105,-0.36224275827407837,-0.1802377700805664
1782853705606524000,3.75052392578125,0.13061276078224182,-0.3524971902370453,-0.2792927026748657
1782853705616509200,3.76050927734375,0.05595250427722931,-0.3263218402862549,-0.3818877935409546
1782853705626493200,3.7704931640625,-0.05034623667597771,-0.26144537329673767,-0.48426663875579834
1782853705636478200,3.780478271484375,-0.16332916915416718,-0.14848434925079346,-0.5794356465339661
1782853705646463200,3.790463134765625,-0.26789337396621704,-0.021221207454800606,-0.653038740158081
1782853705656447200,3.800447265625,-0.35586899518966675,0.11783099174499512,-0.6984236836433411
1782853705666432300,3.810432373046875,-0.4223569333553314,0.2551414370536804,-0.7079682350158691
1782853705676417000,3.8204169921875,-0.44423708319664,0.3691209852695465,-0.664585292339325
1782853705686401000,3.830401123046875,-0.4090900123119354,0.4492855966091156,-0.5752716660499573
1782853705696386000,3.840385986328125,-0.33794188499450684,0.49711182713508606,-0.44855979084968567
1782853705706371000,3.85037109375,-0.25300782918930054,0.48694756627082825,-0.30852946639060974
1782853705716355000,3.86035498046875,-0.16763940453529358,0.3860591650009155,-0.18094375729560852
1782853705726340000,3.870340087890625,-0.09867818653583527,0.23638208210468292,-0.06681399047374725
1782853705736325000,3.8803251953125,-0.04025457426905632,0.0659017413854599,0.02422289177775383
1782853705746309000,3.89030908203125,-0.013861316256225109,-0.11048714071512222,0.0989684984087944
1782853705756294000,3.9002939453125,-0.006714655086398125,-0.2445390522480011,0.16202475130558014
1782853705766278100,3.910278076171875,-0.025559449568390846,-0.3033917248249054,0.22555099427700043
1782853705776263000,3.920262939453125,-0.06476958096027374,-0.29424533247947693,0.2831701338291168
1782853705786248200,3.930248291015625,-0.12225737422704697,-0.22175516188144684,0.32717540860176086
1782853705796232200,3.940232177734375,-0.18164590001106262,-0.11399970203638077,0.3560761511325836
1782853705806217200,3.95021728515625,-0.22940729558467865,0.010200541466474533,0.3535751700401306
1782853705816202200,3.9602021484375,-0.2650260031223297,0.11205660551786423,0.3241001069545746
1782853705826186200,3.970186279296875,-0.2954305112361908,0.1896003782749176,0.2595978081226349
1782853705836171300,3.980171142578125,-0.32427090406417847,0.23755575716495514,0.16771019995212555
1782853705846156000,3.990156005859375,-0.3452238440513611,0.25265106558799744,0.06931093335151672
1782853705856139300,4.00013916015625,-0.35175904631614685,0.24530912935733795,-0.021839385852217674
1782853705866124000,4.0101240234375,-0.34654751420021057,0.20926512777805328,-0.08073092997074127
1782853705876109000,4.020109130859375,-0.33105117082595825,0.15282636880874634,-0.10153863579034805
1782853705886093000,4.030093017578125,-0.3110308349132538,0.07808395475149155,-0.08586673438549042
1782853705896078000,4.040078125,-0.29980939626693726,0.004999743774533272,-0.04969531297683716
1782853705906063000,4.05006298828125,-0.28311002254486084,-0.03233884274959564,-0.0025722752325236797
1782853705916047000,4.060047119140625,-0.27257397770881653,-0.04995594546198845,0.04702100157737732
1782853705926032100,4.0700322265625,-0.2627975046634674,-0.05206197500228882,0.07327631115913391
1782853705936017200,4.08001708984375,-0.26456552743911743,-0.07332734018564224,0.07441557198762894
1782853705946001200,4.090001220703125,-0.2652619481086731,-0.12108846753835678,0.06070348620414734
1782853705955986000,4.09998583984375,-0.266857773065567,-0.16287685930728912,0.0509733110666275
1782853705965970000,4.109969970703125,-0.2710053622722626,-0.17891360819339752,0.05401277914643288
1782853705975955000,4.119954833984375,-0.27985262870788574,-0.16508007049560547,0.06429730355739594
1782853705985940200,4.129940185546875,-0.286591500043869,-0.14923372864723206,0.07486392557621002
1782853705995924000,4.139924072265625,-0.29510021209716797,-0.12265293300151825,0.07640425115823746
1782853706005909200,4.1499091796875,-0.31308454275131226,-0.08323175460100174,0.06771036237478256
1782853706015894300,4.159894287109375,-0.33657893538475037,-0.04537903890013695,0.047859132289886475
1782853706025878300,4.169878173828125,-0.3810476064682007,-0.01560915820300579,0.02864709123969078
1782853706035863000,4.179863037109375,-0.42238208651542664,-0.014317585155367851,0.013613861054182053
1782853706045848000,4.18984814453125,-0.43822044134140015,-0.04542623460292816,0.028071364387869835
1782853706055832000,4.19983203125,-0.41498851776123047,-0.07032880187034607,0.06461033225059509
1782853706065817000,4.209817138671875,-0.3837642967700958,-0.06645043939352036,0.10826672613620758
1782853706075802000,4.219802001953125,-0.34961214661598206,0.0007045697420835495,0.15272583067417145
1782853706085786000,4.2297861328125,-0.3180829882621765,0.14777657389640808,0.20936059951782227
1782853706095771100,4.239771240234375,-0.2943854331970215,0.3345405161380768,0.2714996933937073
1782853706105755100,4.249755126953125,-0.2848747670650482,0.4966399371623993,0.3154296278953552
1782853706115740200,4.259740234375,-0.27673575282096863,0.5802406668663025,0.3248186409473419
1782853706125725000,4.269724853515625,-0.2743178606033325,0.5641354918479919,0.3039943277835846
1782853706135709000,4.279708984375,-0.2647622227668762,0.4474602937698364,0.26389846205711365
1782853706145694000,4.28969384765625,-0.25760310888290405,0.2490295171737671,0.20389267802238464
1782853706155679000,4.299678955078125,-0.2408183217048645,0.03633325546979904,0.13047601282596588
1782853706165663000,4.3096630859375,-0.20956692099571228,-0.11124448478221893,0.044965632259845734
1782853706175648300,4.319648193359375,-0.17130176723003387,-0.16818970441818237,-0.026959965005517006
1782853706185633300,4.32963330078125,-0.1426410973072052,-0.1419927179813385,-0.08244293183088303
1782853706195617300,4.3396171875,-0.1290808469057083,-0.050985194742679596,-0.12078622728586197
1782853706205602000,4.34960205078125,-0.1443689912557602,0.06600480526685715,-0.15403340756893158
1782853706215587000,4.359587158203125,-0.1878923624753952,0.15652793645858765,-0.19201406836509705
1782853706225571000,4.369571044921875,-0.2551784813404083,0.21114404499530792,-0.24858172237873077
1782853706235556000,4.37955615234375,-0.3058353066444397,0.23184028267860413,-0.3012734055519104
1782853706245541000,4.389541015625,-0.3218800723552704,0.2742021083831787,-0.3472427427768707
1782853706255525000,4.399525146484375,-0.2930472493171692,0.3619959354400635,-0.3556124269962311
1782853706265510100,4.40951025390625,-0.2348094880580902,0.47363245487213135,-0.33454176783561707
1782853706275495200,4.4194951171875,-0.1680002063512802,0.5352171659469604,-0.30172497034072876
1782853706285479200,4.429479248046875,-0.08143334835767746,0.5146509408950806,-0.2725428640842438
1782853706295464000,4.4394638671875,0.02157030999660492,0.4278324544429779,-0.24245741963386536
1782853706305448000,4.449447998046875,0.12955084443092346,0.2571896016597748,-0.22882255911827087
1782853706315433000,4.459432861328125,0.22535988688468933,0.02839970961213112,-0.22448277473449707
1782853706325418000,4.46941796875,0.3172711730003357,-0.2193557620048523,-0.22093117237091064
1782853706335402000,4.479402099609375,0.4198738634586334,-0.4313194453716278,-0.18907855451107025
1782853706345387300,4.48938720703125,0.5218567252159119,-0.5616518259048462,-0.11119546741247177
1782853706355372300,4.499372314453125,0.6069763898849487,-0.5970620512962341,0.0022749295458197594
1782853706365356000,4.50935595703125,0.6563021540641785,-0.5531476140022278,0.13146273791790009
1782853706375341000,4.519341064453125,0.672421932220459,-0.4559015929698944,0.24523665010929108
1782853706385325800,4.529325927734375,0.6595732569694519,-0.3257385194301605,0.31421732902526855
1782853706395309800,4.539309814453125,0.6336164474487305,-0.1933051496744156,0.3230235278606415
1782853706405294800,4.549294921875,0.6046028733253479,-0.06756159663200378,0.27022048830986023
1782853706415279900,4.55927978515625,0.5664693713188171,0.019666723906993866,0.18269072473049164
1782853706425263900,4.569263916015625,0.5299020409584045,0.05044034868478775,0.08367945998907089
1782853706435249000,4.579248779296875,0.4893385171890259,0.04026692360639572,-0.005612540524452925
1782853706445233000,4.58923291015625,0.46125468611717224,-0.0020200833678245544,-0.05236273631453514
1782853706455218000,4.599218017578125,0.44145452976226807,-0.030604500323534012,-0.050821878015995026
1782853706465205000,4.609205078125,0.4309603273868561,-0.04390405863523483,0.003390494966879487
1782853706475190000,4.61918994140625,0.4257158935070038,-0.030563224107027054,0.09585042297840118
1782853706485174000,4.629174072265625,0.4312451481819153,0.004539371468126774,0.19178973138332367
1782853706495158800,4.63915869140625,0.44716715812683105,0.04528316110372543,0.27453336119651794
1782853706505143800,4.649143798828125,0.4625343978404999,0.05095675587654114,0.3189828395843506
1782853706515127800,4.6591279296875,0.48493626713752747,0.02254492975771427,0.33049631118774414
1782853706525112800,4.66911279296875,0.5067316293716431,-0.031896740198135376,0.3175131380558014
1782853706535096800,4.679096923828125,0.5049297213554382,-0.08141536265611649,0.28126537799835205
1782853706545081900,4.689081787109375,0.4860537648200989,-0.10805442929267883,0.24329696595668793
1782853706555067000,4.69906689453125,0.44860851764678955,-0.12493880838155746,0.20300355553627014
1782853706565051000,4.70905078125,0.3957138657569885,-0.12622538208961487,0.15867629647254944
1782853706575036200,4.7190361328125,0.33143866062164307,-0.09405085444450378,0.10480424016714096
1782853706585021000,4.72902099609375,0.2736070454120636,-0.027628686279058456,0.041153889149427414
1782853706595005000,4.7390048828125,0.2345350682735443,0.02057914435863495,-0.010857924818992615
1782853706604990000,4.748989990234375,0.21577602624893188,0.019468873739242554,-0.0367201492190361
1782853706614975000,4.75897509765625,0.21043269336223602,0.025497302412986755,-0.0366726852953434
1782853706624959000,4.768958984375,0.20632688701152802,0.03420637175440788,-0.003565333317965269
1782853706634944000,4.778944091796875,0.18973445892333984,0.030376533046364784,0.032623711973428726
1782853706644929000,4.788928955078125,0.1721554547548294,-0.02700766548514366,0.0470266155898571
1782853706654913000,4.7989130859375,0.16490493714809418,-0.14153854548931122,0.040484488010406494
1782853706664897800,4.808897705078125,0.1688823699951172,-0.2777685523033142,0.013464855961501598
1782853706674882000,4.818882080078125,0.17668232321739197,-0.404592365026474,-0.033337559551000595
1782853706684866800,4.82886669921875,0.1827988177537918,-0.5120932459831238,-0.07247218489646912
1782853706694851800,4.838851806640625,0.19923585653305054,-0.5841706991195679,-0.09832457453012466
1782853706704835800,4.8488359375,0.22207379341125488,-0.6333580017089844,-0.12109539657831192
1782853706714820900,4.85882080078125,0.2543989419937134,-0.6261208653450012,-0.13402992486953735
1782853706724806000,4.868805908203125,0.2767588198184967,-0.5155962109565735,-0.14855027198791504
1782853706734790000,4.878789794921875,0.2743668258190155,-0.3155233860015869,-0.17490342259407043
1782853706744775200,4.888775146484375,0.22494283318519592,-0.10730119794607162,-0.21672411262989044
1782853706754760000,4.898760009765625,0.1328306496143341,0.029667776077985764,-0.293228417634964
1782853706764744000,4.908743896484375,0.003048147074878216,0.07974132895469666,-0.40781518816947937
1782853706774729000,4.91872900390625,-0.13120433688163757,0.05621475726366043,-0.5432646870613098
1782853706784714000,4.9287138671875,-0.2602001428604126,0.01782795414328575,-0.6693904399871826
1782853706794698000,4.938697998046875,-0.38015425205230713,0.0187809020280838,-0.7490373253822327
1782853706804683000,4.94868310546875,-0.4795151948928833,0.07696617394685745,-0.7664536237716675
1782853706814667000,4.9586669921875,-0.5319596529006958,0.14388982951641083,-0.7155198454856873
1782853706824652000,4.968652099609375,-0.5144413709640503,0.21690304577350616,-0.5923488736152649
1782853706834636800,4.97863671875,-0.4442629814147949,0.2726699411869049,-0.4172286093235016
1782853706844621000,4.98862109375,-0.33844465017318726,0.27197912335395813,-0.2150784432888031
1782853706854605800,4.998605712890625,-0.2273952215909958,0.23437242209911346,-0.018139468505978584
1782853706864590800,5.0085908203125,-0.12969130277633667,0.183259978890419,0.14092396199703217
1782853706874574800,5.018574951171875,-0.07902158051729202,0.09183987230062485,0.24116170406341553
1782853706884560000,5.028559814453125,-0.06077466160058975,-0.02691793441772461,0.287007212638855
1782853706894545000,5.038544921875,-0.07237076014280319,-0.12204538285732269,0.29008063673973083
1782853706904529000,5.04852880859375,-0.11712411791086197,-0.15457987785339355,0.2663678526878357
1782853706914514000,5.058513916015625,-0.18916426599025726,-0.13290318846702576,0.23791271448135376
1782853706924498000,5.068497802734375,-0.27998897433280945,-0.06958068907260895,0.22011400759220123
1782853706934483000,5.07848291015625,-0.3752177953720093,0.019660690799355507,0.2046080380678177
1782853706944468000,5.088468017578125,-0.45622849464416504,0.12342569977045059,0.2027302384376526
1782853706954452000,5.098451904296875,-0.5051442980766296,0.23867550492286682,0.20497366786003113
1782853706964437000,5.10843701171875,-0.5219240784645081,0.3581366539001465,0.20822937786579132
1782853706974422000,5.118422119140625,-0.513290286064148,0.4482426941394806,0.20412710309028625
1782853706984406000,5.128406005859375,-0.48486030101776123,0.49214595556259155,0.18885813653469086
1782853706994391000,5.13839111328125,-0.4385231137275696,0.485116183757782,0.17192620038986206
1782853707004375800,5.148375732421875,-0.3757936954498291,0.4521414041519165,0.16413219273090363
1782853707014360000,5.158360107421875,-0.30829375982284546,0.39156612753868103,0.16231851279735565
1782853707024344800,5.1683447265625,-0.24130834639072418,0.3139978349208832,0.1738702356815338
1782853707034329900,5.178329833984375,-0.19538940489292145,0.2266523391008377,0.20263682305812836
1782853707044313900,5.18831396484375,-0.1731003373861313,0.14273986220359802,0.23798495531082153
1782853707054299000,5.198298828125,-0.17080539464950562,0.07872949540615082,0.2785181403160095
1782853707064283000,5.208282958984375,-0.18300879001617432,0.030440792441368103,0.30972346663475037
1782853707074268000,5.218267822265625,-0.20180386304855347,-0.011112144216895103,0.31383782625198364
1782853707084253000,5.2282529296875,-0.22272565960884094,-0.059396855533123016,0.2861343026161194
1782853707094237000,5.23823681640625,-0.2364991307258606,-0.10962004214525223,0.2285080850124359
1782853707104221700,5.2482216796875,-0.2425897866487503,-0.16485747694969177,0.15393078327178955
1782853707114207000,5.25820703125,-0.2388201355934143,-0.23756471276283264,0.07552385330200195
1782853707124191000,5.26819091796875,-0.22767189145088196,-0.30068907141685486,0.011132881045341492
1782853707134176000,5.278176025390625,-0.21191824972629547,-0.324882447719574,-0.04016589745879173
1782853707144161000,5.2881611328125,-0.19789111614227295,-0.29321157932281494,-0.07332304865121841
1782853707154145000,5.29814501953125,-0.1838831752538681,-0.2181018590927124,-0.08786692470312119
1782853707164130000,5.308130126953125,-0.174272358417511,-0.1251908391714096,-0.10159045457839966
1782853707174114800,5.31811474609375,-0.16423088312149048,-0.043494973331689835,-0.10279012471437454
1782853707184099000,5.32809912109375,-0.14761143922805786,0.007885926403105259,-0.09462807327508926
1782853707194083800,5.338083740234375,-0.13572293519973755,0.05243094637989998,-0.0645713210105896
1782853707204067800,5.34806787109375,-0.13303661346435547,0.13286107778549194,-0.005266984459012747
1782853707214052900,5.358052978515625,-0.13520778715610504,0.22713212668895721,0.08115930110216141
1782853707224038000,5.368037841796875,-0.12647315859794617,0.3080490827560425,0.17968213558197021
1782853707234022000,5.37802197265625,-0.10016055405139923,0.34893906116485596,0.27382275462150574
1782853707244007000,5.3880068359375,-0.06332850456237793,0.37025102972984314,0.33006709814071655
1782853707253992000,5.397991943359375,-0.015280503779649734,0.3440421223640442,0.3303978443145752
1782853707263976000,5.407975830078125,0.033208999782800674,0.24396799504756927,0.27051055431365967
1782853707273960700,5.417960693359375,0.0802091509103775,0.05022081732749939,0.16426219046115875
1782853707283946000,5.427946044921875,0.12123753875494003,-0.16790646314620972,0.04302924871444702
1782853707293930000,5.437929931640625,0.15813800692558289,-0.30380478501319885,-0.04388052225112915
1782853707303915000,5.4479150390625,0.1710231900215149,-0.280519962310791,-0.08919233828783035
1782853707313899000,5.45789892578125,0.16256284713745117,-0.15737693011760712,-0.11546903848648071
1782853707323884000,5.467884033203125,0.13314956426620483,-0.0298373531550169,-0.1549951434135437
1782853707333869000,5.477869140625,0.09636104106903076,0.056624848395586014,-0.2262037694454193
1782853707343853000,5.48785302734375,0.05014427751302719,0.09356449544429779,-0.34412482380867004
1782853707353838000,5.497838134765625,-0.01702451892197132,0.07553892582654953,-0.49525317549705505
1782853707363824600,5.50782470703125,-0.10132502019405365,0.00963128637522459,-0.6548492312431335
1782853707373808600,5.51780859375,-0.17393922805786133,-0.06674867868423462,-0.811434268951416
1782853707383793700,5.527793701171875,-0.2011740505695343,-0.1135457456111908,-0.9074084758758545
1782853707393778700,5.53777880859375,-0.16747882962226868,-0.08558035641908646,-0.8970970511436462
1782853707403762700,5.5477626953125,-0.08804046362638474,0.05683564394712448,-0.7800425887107849
1782853707413747500,5.55774755859375,-0.0023869266733527184,0.23796704411506653,-0.6020833849906921
1782853707423731500,5.5677314453125,0.06803716719150543,0.3470383882522583,-0.4170032739639282
1782853707433716500,5.577716552734375,0.13656237721443176,0.3523329794406891,-0.25060856342315674
1782853707443701500,5.587701416015625,0.2189885377883911,0.26346755027770996,-0.12276113033294678
1782853707453685500,5.597685546875,0.3002147078514099,0.08888689428567886,-0.037554264068603516
1782853707463670500,5.60767041015625,0.37533316016197205,-0.10512705147266388,0.03601369261741638
1782853707473655600,5.617655517578125,0.4400245249271393,-0.2534905970096588,0.12190035730600357
1782853707483639600,5.6276396484375,0.4974888563156128,-0.3050547242164612,0.23301942646503448
1782853707493624600,5.63762451171875,0.5420569181442261,-0.2830181121826172,0.3399137258529663
1782853707503609600,5.647609619140625,0.5615147948265076,-0.23860323429107666,0.4198218584060669
1782853707513593600,5.657593505859375,0.5555626749992371,-0.18800503015518188,0.46027588844299316
1782853707523578600,5.66757861328125,0.5263179540634155,-0.14239759743213654,0.46049052476882935
1782853707533562600,5.677562744140625,0.47147032618522644,-0.0982656180858612,0.41876843571662903
1782853707543547600,5.687547607421875,0.4217464327812195,-0.06079148128628731,0.34303614497184753
1782853707553532700,5.69753271484375,0.37217265367507935,-0.036644913256168365,0.25966545939445496
1782853707563516700,5.7075166015625,0.3261638581752777,-0.04189053922891617,0.17236651480197906
1782853707573501700,5.717501708984375,0.2820930778980255,-0.05581463500857353,0.1016123816370964
1782853707583486500,5.727486572265625,0.2469755858182907,-0.0740056186914444,0.07734059542417526
1782853707593470500,5.737470458984375,0.23412656784057617,-0.05317564681172371,0.07904812693595886
1782853707603455500,5.74745556640625,0.23604990541934967,-0.002943369559943676,0.10424882173538208
1782853707613440500,5.7574404296875,0.25673729181289673,0.03656306117773056,0.1203802302479744
1782853707623424500,5.767424560546875,0.2906566560268402,0.053498104214668274,0.12659896910190582
1782853707633409500,5.777409423828125,0.3311029076576233,0.05312700569629669,0.1213332787156105
1782853707643393500,5.7873935546875,0.3628946542739868,0.0042867595329880714,0.0976303443312645
1782853707653378600,5.797378662109375,0.3748551309108734,-0.06929877400398254,0.06996249407529831
1782853707663363600,5.807363525390625,0.36258700489997864,-0.16032721102237701,0.05173315852880478
1782853707673347600,5.81734765625,0.3336018919944763,-0.22636552155017853,0.04948600381612778
1782853707683332600,5.82733251953125,0.2896730601787567,-0.2548331320285797,0.07732189446687698
1782853707693317600,5.837317626953125,0.23633435368537903,-0.21556790173053741,0.13473598659038544
1782853707703301600,5.847301513671875,0.18661713600158691,-0.13772396743297577,0.19966810941696167
1782853707713286700,5.85728662109375,0.13926482200622559,-0.0732574537396431,0.24428269267082214
1782853707723271700,5.867271728515625,0.11000972986221313,-0.02532854676246643,0.2546626329421997
1782853707733255700,5.877255615234375,0.10569208115339279,-0.004204100929200649,0.22999081015586853
1782853707743240700,5.88724072265625,0.12147264182567596,-0.029183220118284225,0.18469682335853577
1782853707753224700,5.897224609375,0.1428295373916626,-0.06800314038991928,0.13775062561035156
1782853707763209500,5.90720947265625,0.15890571475028992,-0.08509983122348785,0.11903447657823563
1782853707773194500,5.917194580078125,0.17287422716617584,-0.06888255476951599,0.1312163770198822
1782853707783178500,5.927178466796875,0.1806011199951172,-0.06476877629756927,0.17066872119903564
1782853707793163500,5.93716357421875,0.17294058203697205,-0.07567416876554489,0.21015195548534393
1782853707803148500,5.9471484375,0.16325600445270538,-0.1119067370891571,0.22968409955501556
1782853707813132500,5.957132568359375,0.1683933138847351,-0.13323913514614105,0.24045753479003906
1782853707823117600,5.96711767578125,0.18734383583068848,-0.11615709215402603,0.2479442059993744
1782853707833101600,5.9771015625,0.2112434357404709,-0.0986129641532898,0.2712114751338959
1782853707843086600,5.987086669921875,0.217603862285614,-0.10322608798742294,0.29240038990974426
1782853707853071400,5.9970712890625,0.20838382840156555,-0.1380997598171234,0.29884281754493713
1782853707863055400,6.007055419921875,0.18754751980304718,-0.19572842121124268,0.26699087023735046
1782853707873040600,6.01704052734375,0.16937530040740967,-0.21280640363693237,0.18358010053634644
1782853707883025700,6.027025634765625,0.16113442182540894,-0.17298494279384613,0.06468886137008667
1782853707893009700,6.037009765625,0.1556210219860077,-0.0760713666677475,-0.06577906757593155
1782853707902994700,6.04699462890625,0.133185476064682,0.037786759436130524,-0.1781013458967209
1782853707912979700,6.056979736328125,0.07629266381263733,0.07926440238952637,-0.26756370067596436
1782853707922963700,6.066963623046875,-0.0026825801469385624,0.061058495193719864,-0.33158475160598755
1782853707932948500,6.076948486328125,-0.07518178969621658,0.03454923629760742,-0.38023635745048523
1782853707942932500,6.086932373046875,-0.14749033749103546,0.003743654116988182,-0.42204558849334717
1782853707952917500,6.09691748046875,-0.2376243770122528,-0.04405292123556137,-0.4660893380641937
1782853707962902500,6.106902587890625,-0.33980217576026917,-0.05609973147511482,-0.4846201539039612
1782853707972886500,6.116886474609375,-0.4132126569747925,0.002168329432606697,-0.45515742897987366
1782853707982871600,6.12687158203125,-0.4428651034832001,0.1045229360461235,-0.3719927668571472
1782853707992856600,6.136856689453125,-0.4331212341785431,0.22481802105903625,-0.2588155269622803
1782853708002840600,6.146840576171875,-0.3972654938697815,0.34376731514930725,-0.13186927139759064
1782853708012825600,6.15682568359375,-0.3478910028934479,0.42160293459892273,-0.01955622434616089
1782853708022810400,6.166810302734375,-0.297822505235672,0.41498127579689026,0.056284476071596146
1782853708032794400,6.17679443359375,-0.2675935626029968,0.3225186765193939,0.07098717987537384
1782853708042779400,6.186779296875,-0.2703358232975006,0.15543381869792938,0.022651076316833496
1782853708052763400,6.196763427734375,-0.29959380626678467,-0.039108116179704666,-0.054616980254650116
1782853708062748700,6.206748779296875,-0.33971646428108215,-0.20769794285297394,-0.12727493047714233
1782853708072733700,6.216733642578125,-0.37340986728668213,-0.28681474924087524,-0.16292442381381989
1782853708082717700,6.2267177734375,-0.39802733063697815,-0.24911075830459595,-0.1381618082523346
1782853708092702700,6.23670263671875,-0.42375868558883667,-0.12570858001708984,-0.061328329145908356
1782853708102687500,6.2466875,-0.43044745922088623,0.026393868029117584,0.05121073126792908
1782853708112671500,6.25667138671875,-0.41092267632484436,0.2116624265909195,0.1716545671224594
1782853708122656500,6.266656494140625,-0.37792131304740906,0.36629781126976013,0.2609231770038605
1782853708132641500,6.2766416015625,-0.34599778056144714,0.45631885528564453,0.30261436104774475
1782853708142625500,6.28662548828125,-0.3225741982460022,0.47603291273117065,0.2958661615848541
1782853708152610600,6.296610595703125,-0.2952277362346649,0.44366949796676636,0.2481871247291565
1782853708162594600,6.306594482421875,-0.2753024995326996,0.3612545132637024,0.1753195822238922
1782853708172579600,6.31657958984375,-0.2705073952674866,0.22920365631580353,0.11341723799705505
1782853708182564600,6.326564697265625,-0.28396087884902954,0.08832322806119919,0.084263876080513
1782853708192548600,6.336548583984375,-0.3096131384372711,-0.0090525783598423,0.09714615345001221
1782853708202533400,6.346533447265625,-0.32879480719566345,-0.06412568688392639,0.14957261085510254
1782853708212518400,6.356518310546875,-0.3330024778842926,-0.056770194321870804,0.21389706432819366
1782853708222502400,6.36650244140625,-0.31607118248939514,0.0047219293192029,0.2678513824939728
1782853708232487700,6.37648779296875,-0.2926047444343567,0.08249016106128693,0.29829275608062744
1782853708242471400,6.386471435546875,-0.26747995615005493,0.12218911945819855,0.29674652218818665
1782853708252456700,6.396456787109375,-0.24688102304935455,0.12463197857141495,0.27136775851249695
1782853708262441700,6.406441650390625,-0.23414792120456696,0.10103558003902435,0.23306377232074738
1782853708272425700,6.41642578125,-0.23004160821437836,0.04405621811747551,0.18689319491386414
1782853708282410500,6.426410400390625,-0.2294842004776001,-0.01682897098362446,0.145377978682518
1782853708292395500,6.4363955078125,-0.231864795088768,-0.05578295886516571,0.11496934294700623
1782853708302379500,6.446379638671875,-0.24379602074623108,-0.07584907859563828,0.1039435938000679
1782853708312364500,6.456364501953125,-0.25643885135650635,-0.07003863900899887,0.11417299509048462
1782853708322349600,6.466349609375,-0.2844526469707489,-0.017672637477517128,0.12686055898666382
1782853708332333600,6.47633349609375,-0.3166746199131012,0.10821304470300674,0.15021947026252747
1782853708342318600,6.486318603515625,-0.35194578766822815,0.2507818937301636,0.17763058841228485
1782853708352302600,6.496302490234375,-0.37174490094184875,0.3704795837402344,0.20320875942707062
1782853708362286300,6.506286376953125,-0.365339994430542,0.4258323311805725,0.2210540622472763
1782853708372271600,6.516271728515625,-0.3159182071685791,0.45062491297721863,0.241341695189476
1782853708382255600,6.526255615234375,-0.2588312029838562,0.47735586762428284,0.2675732970237732
1782853708392240600,6.53624072265625,-0.20661625266075134,0.4999081790447235,0.3141822814941406
1782853708402225400,6.546225341796875,-0.1741030514240265,0.4985488951206207,0.362155944108963
1782853708412209400,6.55620947265625,-0.14732900261878967,0.4512752592563629,0.3902134895324707
1782853708422194400,6.5661943359375,-0.1202252060174942,0.3521087169647217,0.37319695949554443
1782853708432178400,6.576178466796875,-0.09089978039264679,0.19598475098609924,0.3060646653175354
1782853708442163500,6.58616357421875,-0.03856067359447479,0.012868179939687252,0.2148285061120987
1782853708452148500,6.5961484375,0.023210331797599792,-0.154497891664505,0.1279594600200653
1782853708462132500,6.606132568359375,0.06527788937091827,-0.2461492419242859,0.08106785267591476
1782853708472117500,6.616117431640625,0.07444179058074951,-0.2454080879688263,0.06228415668010712
1782853708482102300,6.626102294921875,0.034745246171951294,-0.20163211226463318,0.047051139175891876
1782853708492086500,6.63608642578125,-0.05674183368682861,-0.17231638729572296,-0.005636561196297407
1782853708502071300,6.6460712890625,-0.16024957597255707,-0.20226362347602844,-0.12905782461166382
1782853708512056300,6.656056396484375,-0.23411759734153748,-0.3167423605918884,-0.32799917459487915
1782853708522040300,6.666040283203125,-0.24820812046527863,-0.4552541673183441,-0.5570669770240784
1782853708532025300,6.676025390625,-0.24299301207065582,-0.57211834192276,-0.7701051831245422
1782853708542009300,6.68600927734375,-0.24320447444915771,-0.6378390192985535,-0.9194760322570801
1782853708551994400,6.695994384765625,-0.21775110065937042,-0.5991892218589783,-0.9664686918258667
1782853708561979600,6.705979736328125,-0.14347980916500092,-0.40672793984413147,-0.8807846903800964
1782853708571963600,6.715963623046875,-0.014873377047479153,-0.06300298869609833,-0.6976956725120544
1782853708581948400,6.725948486328125,0.12712237238883972,0.32579800486564636,-0.4686659276485443
1782853708591933400,6.735933349609375,0.23842746019363403,0.6125910878181458,-0.2646970748901367
1782853708601917400,6.74591748046875,0.29379087686538696,0.6671944260597229,-0.14626920223236084
1782853708611902500,6.75590234375,0.3373993933200836,0.4585028886795044,-0.13038428127765656
1782853708621886500,6.765886474609375,0.3934434950351715,0.05811898037791252,-0.1732526570558548
1782853708631871500,6.77587158203125,0.46651455760002136,-0.38887500762939453,-0.22926604747772217
1782853708641856500,6.7858564453125,0.5334643125534058,-0.774227499961853,-0.2303161323070526
1782853708651840500,6.795840576171875,0.5775970220565796,-0.9941328167915344,-0.1539682298898697
1782853708661825500,6.805825439453125,0.6048619151115417,-1.053410530090332,-0.025412116199731827
1782853708671810300,6.815810302734375,0.6136645674705505,-0.9664568305015564,0.12192261219024658
1782853708681794300,6.825794189453125,0.6182300448417664,-0.7724138498306274,0.242655411362648
1782853708691779300,6.835779296875,0.6057350039482117,-0.5463972687721252,0.31745606660842896
1782853708701764400,6.845764404296875,0.5756567120552063,-0.32765188813209534,0.3191080391407013
1782853708711748400,6.855748291015625,0.5207887291908264,-0.1387253701686859,0.2628713548183441
1782853708721733400,6.8657333984375,0.4442495107650757,-0.010362869128584862,0.17437133193016052
1782853708731717400,6.87571728515625,0.373629093170166,0.04811004549264908,0.06661780923604965
1782853708741702700,6.88570263671875,0.3103603720664978,0.08370079845190048,-0.026453547179698944
1782853708751687400,6.8956875,0.25451260805130005,0.11284863948822021,-0.08449901640415192
1782853708761671400,6.90567138671875,0.22364071011543274,0.14402493834495544,-0.11434506624937057
1782853708771656400,6.915656494140625,0.20958206057548523,0.17742247879505157,-0.11360876262187958
1782853708781641500,6.925641357421875,0.20399314165115356,0.18722477555274963,-0.0871015265583992
1782853708791625500,6.93562548828125,0.20531609654426575,0.19155487418174744,-0.04536983370780945
1782853708801610500,6.945610595703125,0.20187290012836456,0.18512201309204102,0.01295872125774622
1782853708811594500,6.955594482421875,0.18873345851898193,0.15318362414836884,0.061137229204177856
1782853708821579500,6.96557958984375,0.16742417216300964,0.07300889492034912,0.09897195547819138
1782853708831564500,6.975564453125,0.15726882219314575,-0.04667440056800842,0.12978914380073547
1782853708841548500,6.985548583984375,0.1594851016998291,-0.17906279861927032,0.15710705518722534
1782853708851533300,6.995533203125,0.16931279003620148,-0.27481740713119507,0.1882840096950531
1782853708861518300,7.005518310546875,0.17058072984218597,-0.2975698411464691,0.22430166602134705
1782853708871502300,7.01550244140625,0.15849867463111877,-0.2440316379070282,0.26736998558044434
1782853708881487400,7.0254873046875,0.13065771758556366,-0.15571509301662445,0.28327226638793945
1782853708891471400,7.035471435546875,0.0889914333820343,-0.07448261231184006,0.2522244453430176
1782853708901456400,7.045456298828125,0.04087236896157265,-0.018938129767775536,0.15379081666469574
1782853708911441400,7.05544140625,-0.0008118469268083572,0.010561319999396801,0.0051447488367557526
1782853708921425400,7.06542529296875,-0.04216541349887848,0.008301627822220325,-0.15879198908805847
1782853708931410400,7.075410400390625,-0.07134304195642471,-0.030198704451322556,-0.2831277549266815
1782853708941395500,7.0853955078125,-0.09495622664690018,-0.05929240584373474,-0.34614455699920654
1782853708951379500,7.09537939453125,-0.11586537212133408,-0.033729080110788345,-0.34697142243385315
1782853708961364500,7.105364501953125,-0.1325567364692688,0.014906631782650948,-0.33128806948661804
1782853708971348500,7.115348388671875,-0.1279691457748413,0.05581982061266899,-0.3100772202014923
1782853708981333500,7.12533349609375,-0.08924491703510284,0.09785488247871399,-0.2745722234249115
1782853708991318500,7.135318603515625,-0.043362196534872055,0.09554021060466766,-0.22590312361717224
1782853709001302500,7.145302490234375,-0.008712606504559517,0.09201525151729584,-0.1755771040916443
1782853709011287600,7.15528759765625,0.006644328590482473,0.04318395256996155,-0.1334262192249298
1782853709021272300,7.165272216796875,0.014835945330560207,-0.06333743035793304,-0.09277386218309402
1782853709031256300,7.17525634765625,0.03020523115992546,-0.23003549873828888,-0.07209918648004532
1782853709041241300,7.185241455078125,0.05777054652571678,-0.4355660080909729,-0.08322986960411072
1782853709051225300,7.195225341796875,0.11404940485954285,-0.5878456234931946,-0.11387694627046585
1782853709061210400,7.20521044921875,0.1814683973789215,-0.6786285638809204,-0.14566709101200104
1782853709071195400,7.2151953125,0.24053744971752167,-0.676621675491333,-0.1592259258031845
1782853709081179400,7.225179443359375,0.2932787239551544,-0.5564312934875488,-0.13463109731674194
1782853709091164400,7.235164306640625,0.30667567253112793,-0.3549698293209076,-0.09615941345691681
1782853709101149400,7.2451494140625,0.2705592215061188,-0.1446424424648285,-0.07448448240756989
1782853709111133400,7.255133544921875,0.18958735466003418,0.04027268663048744,-0.10204532742500305
1782853709121118500,7.265118408203125,0.08867378532886505,0.16726607084274292,-0.19136933982372284
1782853709131103500,7.275103515625,-0.025401223450899124,0.2062625288963318,-0.3313060998916626
1782853709141087500,7.28508740234375,-0.13734400272369385,0.1879330575466156,-0.49928978085517883
1782853709151072500,7.295072509765625,-0.24515187740325928,0.18011939525604248,-0.6494340300559998
1782853709161056500,7.305056396484375,-0.32845768332481384,0.23915234208106995,-0.7455312609672546
1782853709171041500,7.31504150390625,-0.37835240364074707,0.3161456882953644,-0.7813845276832581
1782853709181026600,7.325026611328125,-0.36869844794273376,0.42244336009025574,-0.7257583141326904
1782853709191010600,7.335010498046875,-0.3156057894229889,0.5773493647575378,-0.5895892381668091
1782853709200995300,7.344995361328125,-0.24279603362083435,0.691727876663208,-0.40216848254203796
1782853709210980400,7.35498046875,-0.16845703125,0.6782093048095703,-0.18759405612945557
1782853709220964400,7.36496435546875,-0.09016143530607224,0.5657011270523071,0.03573782742023468
1782853709230949400,7.374949462890625,-0.0030387593433260918,0.432831734418869,0.23991036415100098
1782853709240933400,7.384933349609375,0.06847883760929108,0.27573078870773315,0.4058420956134796
1782853709250918400,7.39491845703125,0.11428625881671906,0.11773607134819031,0.5207054018974304
1782853709260903400,7.4049033203125,0.1404491513967514,0.005755214020609856,0.5884114503860474
1782853709270887400,7.414887451171875,0.15393050014972687,-0.06245823949575424,0.6149150729179382
1782853709280872400,7.42487255859375,0.1523911952972412,-0.10493592172861099,0.613730788230896
1782853709290856400,7.4348564453125,0.14406906068325043,-0.14590467512607574,0.6181375980377197
1782853709300841200,7.44484130859375,0.12236002832651138,-0.13732610642910004,0.6263643503189087
1782853709310826500,7.454826416015625,0.09511689841747284,-0.09662097692489624,0.6170822978019714
1782853709320810500,7.464810546875,0.048569370061159134,-0.04699696600437164,0.5717675685882568
1782853709330795500,7.47479541015625,0.012362781912088394,0.019732199609279633,0.4952908456325531
1782853709340780500,7.484780517578125,-0.018932024016976357,0.10385266691446304,0.3897961378097534
1782853709350764500,7.4947646484375,-0.0680130273103714,0.18752989172935486,0.2633265256881714
1782853709360753000,7.5047529296875,-0.12352955341339111,0.24753570556640625,0.13515202701091766
1782853709370737700,7.514737548828125,-0.16847209632396698,0.26662972569465637,0.026288781315088272
1782853709380722000,7.524721923828125,-0.1990976482629776,0.21869710087776184,-0.044165678322315216
1782853709390706700,7.534706787109375,-0.2264232486486435,0.11369732767343521,-0.08366072177886963
1782853709400690700,7.544690673828125,-0.23687241971492767,0.017931915819644928,-0.09933049231767654
1782853709410675700,7.55467578125,-0.2429456263780594,-0.043494850397109985,-0.08961913734674454
1782853709420660700,7.56466064453125,-0.24097436666488647,-0.09053079783916473,-0.07229367643594742
1782853709430644700,7.574644775390625,-0.2324971705675125,-0.13450469076633453,-0.05206308513879776
1782853709440629800,7.584629638671875,-0.20958226919174194,-0.1829364001750946,-0.03983305022120476
1782853709450615000,7.594614990234375,-0.17241033911705017,-0.20561639964580536,-0.0249810628592968
1782853709460598800,7.604598876953125,-0.13370555639266968,-0.19034025073051453,0.0009536007419228554
1782853709470583800,7.614583740234375,-0.11075308173894882,-0.16925504803657532,0.03573998063802719
1782853709480567800,7.62456787109375,-0.10616925358772278,-0.13683345913887024,0.07015813887119293
1782853709490552800,7.634552734375,-0.10890401899814606,-0.10633495450019836,0.08133505284786224
1782853709500537900,7.644537841796875,-0.1072203665971756,-0.07229337096214294,0.08233240246772766
1782853709510521900,7.65452197265625,-0.10554688423871994,-0.01042726170271635,0.07347102463245392
1782853709520507000,7.6645068359375,-0.11342797428369522,0.07360612601041794,0.05805186182260513
1782853709530492000,7.674491943359375,-0.13550794124603271,0.16039294004440308,0.027826201170682907
1782853709540476000,7.684475830078125,-0.15349653363227844,0.21809059381484985,0.008747847750782967
1782853709550461000,7.6944609375,-0.15461808443069458,0.2096332460641861,0.007575211115181446
1782853709560445000,7.70444482421875,-0.12415419518947601,0.18104608356952667,0.04217899218201637
1782853709570429700,7.7144296875,-0.07767670601606369,0.1746603548526764,0.09982871264219284
1782853709580414700,7.724414794921875,-0.02737198770046234,0.19520796835422516,0.17761698365211487
1782853709590398700,7.734398681640625,0.007324669510126114,0.2505980432033539,0.2588557302951813
1782853709600383700,7.7443837890625,0.017935236915946007,0.32381126284599304,0.2989562749862671
1782853709610368800,7.75436865234375,0.007016849238425493,0.36065587401390076,0.28012773394584656
1782853709620352800,7.764352783203125,-0.00787474773824215,0.3206253945827484,0.20107047259807587
1782853709630337800,7.774337890625,-0.014629536308348179,0.16833806037902832,0.09437728673219681
1782853709640321800,7.78432177734375,-0.004351331852376461,-0.11604680120944977,0.012499199248850346
1782853709650306800,7.794306884765625,0.026457617059350014,-0.3430202901363373,-0.025828707963228226
1782853709660291800,7.804291748046875,0.05888799577951431,-0.4140971302986145,-0.03799482807517052
1782853709670275800,7.81427587890625,0.10067439079284668,-0.35504212975502014,-0.04550611600279808
1782853709680260900,7.8242607421875,0.15533417463302612,-0.20340199768543243,-0.06229149177670479
1782853709690246000,7.834245849609375,0.20597489178180695,-0.03747177869081497,-0.09932032227516174
1782853709700230000,7.84422998046875,0.22575978934764862,0.14050275087356567,-0.12142802029848099
1782853709710215000,7.85421484375,0.20349855720996857,0.3004082441329956,-0.13168255984783173
1782853709720199000,7.864198974609375,0.16841113567352295,0.41076749563217163,-0.1465589851140976
1782853709730184000,7.874183837890625,0.13804991543293,0.4915802776813507,-0.18133388459682465
1782853709740168700,7.884168701171875,0.11823627352714539,0.5261582136154175,-0.2333531379699707
1782853709750152700,7.894152587890625,0.11929827183485031,0.5497553944587708,-0.2501027286052704
1782853709760137700,7.9041376953125,0.08568651229143143,0.6018827557563782,-0.1064925417304039
1782853709770122800,7.914122802734375,0.07209232449531555,0.2976592481136322,-0.048401616513729095
1782853709780106800,7.924106689453125,0.10457783192396164,-0.07071639597415924,-0.046288661658763885
1782853709790091800,7.934091796875,0.1935596913099289,-0.37749236822128296,-0.05044703185558319
1782853709800075800,7.94407568359375,0.2896987497806549,-0.5760357975959778,-0.020462768152356148
1782853709810060800,7.954060791015625,0.3548718988895416,-0.640079140663147,0.018156444653868675
1782853709820045800,7.9640458984375,0.3838377594947815,-0.5744469165802002,0.056897182017564774
1782853709830029800,7.97402978515625,0.4195972979068756,-0.4176258146762848,0.12216223031282425
1782853709840014600,7.9840146484375,0.46407580375671387,-0.30661725997924805,0.17371489107608795
