time,seconds_elapsed,z,y,x
1782942148530451500,0.078451416015625,0.003748538878560066,-0.12650584409516305,0.03273534471429884
1782942148540437500,0.0884375,-0.0027729718446731564,-0.08565065008290111,0.09648410572111606
1782942148550422500,0.098422607421875,-0.07931494425535202,-0.0741240976139903,0.08866312977187335
1782942148560407300,0.1084072265625,-0.08869827415049075,-0.10314281469164416,0.06092077103927731
1782942148570392300,0.118392333984375,-0.04153378739356994,-0.15819789030160755,0.052075639674067496
1782942148580377300,0.12837744140625,0.003417699488997459,-0.2201252628338523,0.05613507113270461
1782942148590362400,0.1383623046875,0.02252104388773441,-0.22481614233013242,0.05578618462979793
1782942148600347400,0.148347412109375,-0.054904725620150564,-0.20687789618801325,0.10929010354131459
1782942148610332400,0.15833251953125,-0.11938158170580863,-0.16934196452526373,0.13723616815246642
1782942148620317400,0.1683173828125,-0.07157996608912945,-0.09980081078736111,0.10478146701045334
1782942148630302500,0.178302490234375,-0.0962993968039751,-0.03943151788469404,0.0667048343334347
1782942148640287500,0.18828759765625,-0.16176994010210036,-0.07122773685166611,0.03849675778523087
1782942148650272300,0.198272216796875,-0.14720949983000756,-0.12942127488413824,0.0016037819348275661
1782942148660257300,0.20825732421875,-0.10464169321358203,-0.13650012722918764,-0.01628024980202317
1782942148670242300,0.2182421875,-0.13007657872140407,-0.1157845435945317,-0.02601151635199785
1782942148680227600,0.2282275390625,-0.09111936381757259,-0.11479664680203422,-0.05502345662899315
1782942148690212600,0.238212646484375,-0.0309393281430006,-0.11809969780226237,-0.051710532688722013
1782942148700197400,0.248197265625,-0.030171850901842115,-0.11450998448091558,-0.049846492382511494
1782942148710182400,0.258182373046875,-0.07930617642700671,-0.10685709510757588,-0.05225720678605139
1782942148720167400,0.26816748046875,-0.09181552938818931,-0.13455634535080752,-0.024209070039913058
1782942148730152400,0.27815234375,-0.10294482616782188,-0.14178025045604445,0.004323416157066821
1782942148740137200,0.28813720703125,-0.1446586463034153,-0.10486488011074252,0.003498436575010419
1782942148750122200,0.298122314453125,-0.18682371733784675,-0.10215085364538244,-0.013317308343201875
1782942148760107500,0.308107421875,-0.18681845664083957,-0.14784393440918064,-0.019486608095280824
1782942148770092500,0.318092529296875,-0.19271277537643908,-0.16833174630310385,-0.02990055967979133
1782942148780077600,0.32807763671875,-0.20389935530126094,-0.1553591780106537,-0.07226528147216886
1782942148790062300,0.338062255859375,-0.1716325779467821,-0.15063390305442734,-0.08224084163941442
1782942148800047400,0.34804736328125,-0.1682867746502161,-0.15468250259179622,-0.07552760773636401
1782942148810032400,0.358032470703125,-0.11789397349655628,-0.1226255137967877,-0.06733093034252524
1782942148820017400,0.368017333984375,-0.14611585937440394,-0.11116335006728768,-0.03622201778627932
1782942148830002400,0.37800244140625,-0.2500689858019352,-0.15533345904750748,-0.016406798791140317
1782942148839987200,0.3879873046875,-0.23368191462457177,-0.1865152907094918,0.0310716492857784
1782942148849972200,0.39797216796875,-0.16953765149414537,-0.19012557189483195,0.04655439203456044
1782942148859957200,0.407957275390625,-0.09567980360090732,-0.12447763533634133,0.0384746555512771
1782942148869942300,0.4179423828125,-0.056359016081690784,-0.0765604213828221,0.010697810027189553
1782942148879927000,0.427927001953125,-0.006646598407626152,-0.0951714156873524,-0.008594736800715326
1782942148889913300,0.437913330078125,0.010780337211489677,-0.12006835839357226,-0.007826419309340417
1782942148899898400,0.4478984375,-0.019511925199627876,-0.12813363709324038,-0.0031269363814964888
1782942148909883100,0.457883056640625,0.0030289924323558806,-0.12451599458535201,0.01529770503807813
1782942148919868200,0.4678681640625,0.00029576807618141173,-0.1464956890048459,0.044057241456583136
1782942148929853200,0.477853271484375,0.006119944185018539,-0.1458865806631744,0.0421896940190345
1782942148939838200,0.487838134765625,0.029058336701989172,-0.1257044463180937,0.045776941388659176
1782942148949823200,0.4978232421875,0.053069911408424375,-0.12669261710522695,0.029462460523471234
1782942148959808300,0.507808349609375,0.05596972450315952,-0.1485988261634018,0.03449610730912536
1782942148969793300,0.517793212890625,0.04657645773589611,-0.169912859748397,0.07780585486665367
1782942148979778300,0.5277783203125,-0.01761339810192585,-0.15729674021080137,0.09705511054210364
1782942148989763300,0.537763427734375,-0.05713116949796676,-0.14501311316373758,0.07956862675547599
1782942148999748400,0.547748291015625,-0.03868775031268597,-0.142833321439242,0.0678403411693871
1782942149009733000,0.557733154296875,-0.0495136802315712,-0.1345310099801514,0.07483641060180962
1782942149019718100,0.56771826171875,-0.11086860490441322,-0.12649929562336765,0.06491137504540384
1782942149029703200,0.577703125,-0.1467407132744789,-0.1258676192568615,0.052194736009091136
1782942149039688400,0.5876884765625,-0.1345464176118374,-0.1393565578399226,0.04965250418037176
1782942149049673200,0.597673095703125,-0.12008943771421908,-0.16182327772453425,0.03799100022017955
1782942149059658200,0.607658203125,-0.06584288374185562,-0.16659695839975028,0.043192623983882364
1782942149069643300,0.617643310546875,-0.07001578551232815,-0.17352147869961335,0.08235058562420308
1782942149079628300,0.627628173828125,-0.08023205910027027,-0.2160872212231159,0.11678813114650546
1782942149089613300,0.63761328125,-0.11715572234988211,-0.23172314523961393,0.09657061496078967
1782942149099598000,0.64759814453125,-0.12314356458783149,-0.19698504586815832,0.08328815873526037
1782942149109583000,0.6575830078125,-0.1420218680590391,-0.18227686768844722,0.08582103821374476
1782942149119568400,0.667568359375,-0.18381693673729896,-0.18118066994957624,0.05690002762321383
1782942149129553400,0.677553466796875,-0.20196926402151583,-0.1897650862856768,0.00754256086666137
1782942149139538200,0.6875380859375,-0.20289514669477937,-0.17989384500943123,-0.014169906584545968
1782942149149523200,0.697523193359375,-0.17757073582410812,-0.174510818530526,-0.008839395744167268
1782942149159508200,0.70750830078125,-0.1222369711369276,-0.16636530506834388,-0.00410392818748951
1782942149169493200,0.7174931640625,-0.13554945717453956,-0.1557933316442184,0.027643757196329534
1782942149179478300,0.727478271484375,-0.18330723364949225,-0.13290541807231493,0.053740284950658676
1782942149189463000,0.737463134765625,-0.24055472300350664,-0.1518572160379961,0.06511782087031752
1782942149199448300,0.7474482421875,-0.24911212346851824,-0.19078259276514872,0.05182257822845131
1782942149209433300,0.757433349609375,-0.2433931612998247,-0.20780670147072522,0.04258486734908074
1782942149219418400,0.76741845703125,-0.20676000542938708,-0.18565271906340494,0.02404368687774986
1782942149229403100,0.777403076171875,-0.19813947660028933,-0.16794008010439573,0.009627221653610468
1782942149239388200,0.78738818359375,-0.1658499028921127,-0.16458470526188612,0.0005854352051392198
1782942149249374200,0.797374267578125,-0.0929752208173275,-0.1515606807768345,-0.02143584246691316
1782942149259359200,0.807359130859375,-0.053451604202389716,-0.11695142281628212,-0.02195855116676539
1782942149269344300,0.81734423828125,-0.04504793299436569,-0.08467398707047104,-0.026249307163245975
1782942149279329300,0.827329345703125,-0.05760580127239227,-0.0810823831861373,-0.03742361212838441
1782942149289314300,0.837314208984375,-0.06407119789421559,-0.08302708751312457,-0.04852103419872
1782942149299299300,0.84729931640625,-0.020749358040094375,-0.09594626338421366,-0.06622543505234643
1782942149309284000,0.8572841796875,0.010432546687126159,-0.11737083553844131,-0.08826866882788018
1782942149319269000,0.86726904296875,0.0038929157853126524,-0.11850203152545727,-0.09583744184803217
1782942149329254100,0.877254150390625,-0.037648470392823215,-0.1116404843260534,-0.07247307900395245
1782942149339239400,0.887239501953125,-0.053254620325565334,-0.08940398386758752,-0.05168934377022087
1782942149349224400,0.897224365234375,-0.06477554677128791,-0.0686802260596305,-0.03670881492253393
1782942149359209200,0.907209228515625,-0.07774141132831573,-0.05621242895154282,-0.056922239455021915
1782942149369194200,0.9171943359375,-0.04606441656053066,-0.025735311492811885,-0.05914767868584021
1782942149379179300,0.92717919921875,-0.07838146279752255,-0.013018581124953925,-0.04742958570020273
1782942149389164300,0.937164306640625,-0.13253858492076395,-0.0398963954500854,-0.05032638485394418
1782942149399149000,0.947149169921875,-0.08419920916557312,-0.07874994905004278,-0.08217504639420657
1782942149409134000,0.957134033203125,0.004527122035622597,-0.0952587469109334,-0.08878924036957322
1782942149419119400,0.967119384765625,0.03698094639480114,-0.11576772032389417,-0.07329314494887366
1782942149429104400,0.9771044921875,0.03026654344797134,-0.1272260481284931,-0.07209264658531174
1782942149439089400,0.98708935546875,0.06010755496025085,-0.10862955727335065,-0.05364760169852525
1782942149449074200,0.99707421875,0.060792030093073844,-0.0982683039904572,-0.029249000435881314
1782942149459059200,1.00705908203125,0.0020762217521667478,-0.13790866058655082,0.013005703377071767
1782942149469044200,1.017044189453125,-0.05890636247694492,-0.15105181793924422,0.04157780919838697
1782942149479029200,1.027029296875,-0.07816168256700039,-0.12876735928636043,0.0219066383164376
1782942149489014300,1.03701416015625,-0.07229600540399551,-0.1476123084772378,0.005759769103117287
1782942149498999300,1.046999267578125,-0.09381225616335868,-0.16977323208199813,0.02653375012781471
1782942149508984300,1.056984375,-0.1250555356889963,-0.19034076728178187,0.043515681925788516
1782942149518969300,1.06696923828125,-0.1551063905596733,-0.1672134463302791,0.0423415601124987
1782942149528954400,1.076954345703125,-0.1598819343984127,-0.15053333788993767,0.04997601878000423
1782942149538939100,1.086939208984375,-0.16992226689755915,-0.16044135837946086,0.0338482743922621
1782942149548924200,1.096924072265625,-0.19825638097822665,-0.19507935837730764,0.00438740303767845
1782942149558909200,1.1069091796875,-0.20778174969255922,-0.2200851682854816,-0.010244513301737606
1782942149568894200,1.116894287109375,-0.2522434072315693,-0.21284579161647707,0.014706296749878674
1782942149578879200,1.126879150390625,-0.2708785495966673,-0.19166125702951103,0.04708458992112428
1782942149588864300,1.1368642578125,-0.27952421286702156,-0.16972964866859838,0.09158018626235424
1782942149598849300,1.146849365234375,-0.29432138450443746,-0.1387132184350863,0.1235051827081479
1782942149608834300,1.156834228515625,-0.2766372592538595,-0.11086781031996942,0.10512772316485643
1782942149618820000,1.166820068359375,-0.20145079310536385,-0.10585205538403242,0.055868218623753636
1782942149628805000,1.17680517578125,-0.11771920145153998,-0.12689634125009178,-0.012112225136067717
1782942149638790400,1.186790283203125,-0.045675124981999396,-0.1418593892400153,-0.0661512555712834
1782942149648775400,1.196775390625,0.016605682364106176,-0.14724018722921609,-0.09573082140209152
1782942149658760200,1.20676025390625,0.00958674351274967,-0.18551343845687807,-0.08715816856902092
1782942149668745200,1.2167451171875,-0.051883916494250296,-0.16699227786026893,-0.03028062677225098
1782942149678730200,1.226730224609375,-0.07743278377056122,-0.12355263857906684,0.009083068306930363
1782942149688715300,1.23671533203125,-0.09939151760041713,-0.11159129315577447,0.029717019806429743
1782942149698700300,1.2467001953125,-0.11386194150149821,-0.11557417051317169,0.0248648670675233
1782942149708685000,1.25668505859375,-0.07535247036516667,-0.08166273122420534,-0.017650643106084316
1782942149718670300,1.26667041015625,-0.04476736248731613,-0.03263056916557252,-0.05166375267123803
1782942149728655400,1.2766552734375,-0.01191430967748165,-0.02409784648409113,-0.08710797275174409
1782942149738640400,1.286640380859375,0.002378419569134712,-0.04223424554681405,-0.11153495985865593
1782942149748625200,1.296625244140625,-0.006220481950044631,-0.05352403011778369,-0.0962865738550201
1782942149758610200,1.306610107421875,0.015734744748473167,-0.07185052665881812,-0.08135947396131232
1782942149768595200,1.31659521484375,0.016496961292624474,-0.07522493499536066,-0.03463511392101645
1782942149778580200,1.326580322265625,-0.03297171075344085,-0.09450071335155516,0.018127083245106042
1782942149788565200,1.336565185546875,-0.05381868394911289,-0.10570658249873667,0.051268031351920214
1782942149798550300,1.34655029296875,-0.06164250944256782,-0.13070521374745295,0.054414366553630675
1782942149808535300,1.356535400390625,-0.07382277657985686,-0.12069719434902071,0.04170784705253318
1782942149818520300,1.366520263671875,-0.08737900824546814,-0.10772911956859751,0.013423179870471357
1782942149828505900,1.376505859375,-0.10827098962664604,-0.1301817378626205,0.011529621208831668
1782942149838490600,1.38649072265625,-0.1055149689167738,-0.13924175408752634,0.018279533860459923
1782942149848475600,1.3964755859375,-0.11741875720024109,-0.1171921088375151,0.0505209575779736
1782942149858461000,1.4064609375,-0.1318622930943966,-0.1251114305946976,0.07565972794974223
1782942149868446000,1.416446044921875,-0.12281564780771731,-0.1260093658151105,0.07962441206332296
1782942149878430700,1.4264306640625,-0.09806173030138016,-0.13383989504398777,0.07902193439183756
1782942149888415700,1.436415771484375,-0.09754033677577972,-0.13388377071833238,0.06084527638396248
1782942149898400800,1.44640087890625,-0.08475041330754757,-0.1068267091024667,0.07870821053385733
1782942149908385800,1.4563857421875,-0.0912672478556633,-0.10336330730821937,0.08038416265575214
1782942149918370800,1.466370849609375,-0.10796996085345745,-0.12981854883972554,0.08195519309844822
1782942149928355600,1.47635546875,-0.11121931803822517,-0.13114422621922567,0.11037232755376025
1782942149938340900,1.4863408203125,-0.1041506948262453,-0.13387938680415973,0.101353063464351
1782942149948326000,1.496325927734375,-0.08435469198822974,-0.1287642905464396,0.08454055168284103
1782942149958311000,1.506310791015625,-0.07740706480741501,-0.10474540931638329,0.0831301003630273
1782942149968296000,1.5162958984375,-0.08929799360930919,-0.0758013649101369,0.0773307116355747
1782942149978280700,1.52628076171875,-0.13873393242955206,-0.0844863738101907,0.10332440006993711
1782942149988266800,1.536266845703125,-0.18277298064231873,-0.10855579791739582,0.11798403553334064
1782942149998251800,1.546251708984375,-0.19657821863293645,-0.0990786887915805,0.09677878695190884
1782942150008236800,1.55623681640625,-0.18973755895793437,-0.07236868704771622,0.08196812564525753
1782942150018221800,1.566221923828125,-0.16989654793441294,-0.03964978201156482,0.0566434864457231
1782942150028206800,1.576206787109375,-0.1541179640442133,-0.037989904241636396,0.007725835878541693
1782942150038191900,1.58619189453125,-0.12998656235039233,-0.040465464042313395,-0.023253769475920123
1782942150048176600,1.5961767578125,-0.11335808363258838,-0.04772924450021237,-0.04592328192363493
1782942150058161700,1.60616162109375,-0.10872224052548408,-0.08117392479395494,-0.05289912141878157
1782942150068146700,1.616146728515625,-0.11771218718886375,-0.10207193405712023,-0.03359310318795033
1782942150078131700,1.626131591796875,-0.10815583881437778,-0.09276042728917673,-0.02359037188598886
1782942150088117000,1.636116943359375,-0.1111743098527193,-0.06511193911880254,-0.018325409695645792
1782942150098101800,1.646101806640625,-0.12495908957719802,-0.06991619759537279,0.005596724028512835
1782942150108086800,1.656086669921875,-0.11718553296625614,-0.09309906639270484,0.013023659158870576
1782942150118071800,1.66607177734375,-0.10403437497019767,-0.10331983349267393,0.028960959008429196
1782942150128056800,1.676056884765625,-0.11334463962912558,-0.08337444877922534,0.023310614229692144
1782942150138041900,1.686041748046875,-0.13045242629647255,-0.08171531992796809,0.04194403956173919
1782942150148026600,1.696026611328125,-0.13515490489900112,-0.07538165992703288,0.06514957684860564
1782942150158012000,1.706011962890625,-0.11547989809215069,-0.06071503760041669,0.09511532898540608
1782942150167997000,1.715996826171875,-0.11662205386459827,-0.0524159044791013,0.08057934730113483
1782942150177982000,1.72598193359375,-0.09249240573644638,-0.05612155406400561,0.05932578433225862
1782942150187966700,1.735966796875,-0.03232113789021969,-0.059184814092144364,0.05700251988330856
1782942150197951700,1.74595166015625,-0.04068739969730377,-0.03834416103940457,0.07022842361601069
1782942150207936800,1.755936767578125,-0.03483049036264419,-0.053862486558221276,0.07034879859266802
1782942150217921800,1.765921875,0.021484686577320097,-0.0795089141911827,0.0534017280455213
1782942150227906800,1.77590673828125,0.06153495741486549,-0.08331274518724531,0.05644026462435722
1782942150237891800,1.785891845703125,0.0013747954845428467,-0.0585538227122277,0.05303902307981625
1782942150247876900,1.795876953125,-0.04527297392189503,-0.07056677045859396,0.06241735713942907
1782942150257862000,1.80586181640625,-0.08381810089349746,-0.0933826873733662,0.08536599705577827
1782942150267847000,1.815846923828125,-0.11937690553069114,-0.09755202721357345,0.0888384406730067
1782942150277831700,1.825831787109375,-0.17036650353372096,-0.07566794778881594,0.06792583662890829
1782942150287816700,1.835816650390625,-0.1649871485829353,-0.07814568128027022,0.03659001084845513
1782942150297801700,1.8458017578125,-0.13168167583048343,-0.10039452063050121,-0.006961217314749956
1782942150307786800,1.855786865234375,-0.12325813087821005,-0.1184713349930942,0.00580809262371622
1782942150317772000,1.86577197265625,-0.12757073338031769,-0.1288217563547194,0.04113860493036918
1782942150327756800,1.8757568359375,-0.062435705646872515,-0.12121637765122577,0.051430555836716664
1782942150337741800,1.885741943359375,-0.009995324313640594,-0.113679917731788,0.07717512834821827
1782942150347728000,1.895727783203125,-0.022003742015361785,-0.13336365583436563,0.10064913471238687
1782942150357712600,1.905712646484375,-0.052792263510823244,-0.15693972520036623,0.10733208307502791
1782942150367697700,1.91569775390625,-0.058387307038903234,-0.18608780427873134,0.1075119148876518
1782942150377682700,1.9256826171875,-0.0706973380357027,-0.21823013326963409,0.11472851346926763
1782942150387668000,1.93566796875,-0.10502338600754738,-0.23848200838267802,0.1399040721874684
1782942150397653000,1.945653076171875,-0.13833762658834456,-0.23339862243747336,0.11842039025714621
1782942150407637800,1.9556376953125,-0.12470073090195655,-0.21729049606565384,0.09033855217080562
1782942150417622800,1.965622802734375,-0.1110825399160385,-0.20759755223207174,0.076264415844623
1782942150427607800,1.97560791015625,-0.11888181549012661,-0.18155686458451673,0.06941522580329329
1782942150437592800,1.9855927734375,-0.12743278621435164,-0.19247379725510252,0.06438102189521305
1782942150447577600,1.99557763671875,-0.11309914043545723,-0.22529685678547248,0.08692069741818122
1782942150457562600,2.005562744140625,-0.12315291693806647,-0.2346652813724242,0.11932550413701683
1782942150467548000,2.0155478515625,-0.2034042652606964,-0.20291651827637106,0.14458496001269666
1782942150477533000,2.025532958984375,-0.21663784084320067,-0.20836795208267866,0.15558582637337967
1782942150487518000,2.03551806640625,-0.17109774041771889,-0.20180492203896863,0.1362189722002484
1782942150497502700,2.045502685546875,-0.15027590166330337,-0.172181517066434,0.1134832717816811
1782942150507487700,2.05548779296875,-0.13681027089059353,-0.1632077726191841,0.09049989847866818
1782942150517472800,2.06547265625,-0.14655541983544826,-0.16529100863402707,0.07771732719982974
1782942150527457800,2.075457763671875,-0.13761924918591975,-0.1693442660802044,0.10924171608863398
1782942150537442600,2.085442626953125,-0.1297574297696352,-0.17532211664710193,0.14334791076472028
1782942150547427800,2.095427734375,-0.13358487910330294,-0.15820716958660633,0.14364082016353494
1782942150557412900,2.105412841796875,-0.11544950295388698,-0.11597402001833543,0.13101400570198893
1782942150567398000,2.11539794921875,-0.09898410584330558,-0.11388937749769538,0.13321575352996587
1782942150577383000,2.1253828125,-0.09256605549454688,-0.11039185423813759,0.12426374599048867
1782942150587367700,2.13536767578125,-0.06639817953705787,-0.08721764367129653,0.11911971589922904
1782942150597352700,2.145352783203125,-0.0149316116720438,-0.07404924227949232,0.07433646172303705
1782942150607337700,2.155337646484375,-0.01968728176653385,-0.09123429543413221,0.06366073566349223
1782942150617322800,2.16532275390625,-0.03441957147419453,-0.0919673954816535,0.07170551043124869
1782942150627307800,2.175307861328125,-0.04192833966910839,-0.05758961732257157,0.07148426889600232
1782942150637292800,2.185292724609375,-0.04235854777991772,-0.03512899838518351,0.03440481229647994
1782942150647277800,2.19527783203125,-0.040054362490773196,-0.023969123804196715,0.001169774431735277
1782942150657262800,2.205262939453125,-0.028147067075967785,-0.021544892331957815,-0.02184235917488113
1782942150667247900,2.215247802734375,-0.021291794353723525,-0.024067031220719216,-0.005696220613922924
1782942150677232600,2.225232666015625,-0.028318916511535643,-0.04622848454844206,0.01651394896004349
1782942150687217700,2.2352177734375,-0.020061375775933265,-0.05636529969200491,0.006633428398799151
1782942150697204000,2.245203857421875,-0.026439094114303587,-0.05793295086752623,0.016234419632609933
1782942150707188000,2.25518798828125,-0.03307224851846695,-0.09172006965707986,0.03215871387012303
1782942150717173800,2.265173828125,-0.03818447696566581,-0.08778283980600535,0.044533078807406125
1782942150727158800,2.27515869140625,-0.05152385101020336,-0.06766801680978388,0.03957931059123948
1782942150737143800,2.285143798828125,-0.05752689081728458,-0.09155271373353897,0.0294254347150214
1782942150747128800,2.29512890625,-0.09794424140155315,-0.11924056579992175,0.07222290363516658
1782942150757113600,2.305113525390625,-0.1510720204770565,-0.1302745489789173,0.10545237027565017
1782942150767099000,2.315098876953125,-0.16531155823171137,-0.13748857201095668,0.10407936488939448
1782942150777084000,2.325083984375,-0.16581483157873153,-0.15625705843213944,0.12119580978723242
1782942150787069000,2.33506884765625,-0.14196224682629108,-0.1743594638937153,0.09905154505632817
1782942150797053700,2.3450537109375,-0.16993161924779415,-0.16862851902628317,0.07887262558164075
1782942150807038700,2.355038818359375,-0.1783423047184944,-0.15644494568705558,0.08872543615205213
1782942150817023700,2.365023681640625,-0.20670447584986684,-0.15781630710549652,0.11815677088489755
1782942150827008300,2.37500830078125,-0.2021972275584936,-0.14021832576841115,0.11566248811744152
1782942150836993300,2.3849931640625,-0.1977314803212881,-0.12793120072316377,0.1016146918089129
1782942150846978300,2.394978271484375,-0.19885668495893477,-0.1358799312379211,0.11717066419068724
1782942150856963000,2.404963134765625,-0.1775835953056812,-0.16877262193839995,0.11375720248539001
1782942150866948400,2.4149482421875,-0.14124796107709406,-0.1681444801026955,0.12006830359464511
1782942150876933400,2.424933349609375,-0.12305997795760631,-0.1413440053300932,0.12565328238643705
1782942150886918400,2.43491845703125,-0.11356325081586838,-0.1460791075605899,0.10963411293970421
1782942150896903200,2.444903076171875,-0.09433715682029724,-0.1324685153592378,0.103635584910959
1782942150906888200,2.45488818359375,-0.0369347691655159,-0.09376732104308903,0.060299095476977524
1782942150916873200,2.464873291015625,0.03231587719321251,-0.05295673335753381,0.0006012538287788629
1782942150926858200,2.474858154296875,0.05684241568446159,-0.05577770906239748,-0.0034099545739591118
1782942150936843300,2.48484326171875,0.034717093116045,-0.0991678283797577,0.013620784801803528
1782942150946828300,2.494828369140625,0.01969078889787197,-0.10736728225257247,0.06208630768731236
1782942150956813300,2.504813232421875,-0.01797930880486965,-0.07089596588034182,0.08113233240824193
1782942150966798300,2.51479833984375,-0.021869886502623555,-0.05112422070074826,0.0711090971743688
1782942150976783400,2.524783447265625,-0.01772621082663536,-0.041565351575613016,0.043665922317747026
1782942150986768100,2.53476806640625,-0.020555296772718428,-0.03322049788273871,-0.003974803648795933
1782942150996753200,2.544753173828125,-0.05672141965329647,-0.028730200726166367,-0.059271907853707666
1782942151006738200,2.55473828125,-0.08645020296275616,-0.042012437755987043,-0.08469470106493682
1782942151016723200,2.56472314453125,-0.05107552272081375,-0.05443634092342108,-0.08527471117628738
1782942151026708500,2.57470849609375,-0.020600304958224295,-0.03499989211279899,-0.04428023655749857
1782942151036693200,2.584693359375,-0.04832242462038994,-0.03072491820733994,-0.01654710231097415
1782942151046678300,2.59467822265625,-0.08995441169142722,-0.048134464300237594,0.0015673223819583654
1782942151056663300,2.604663330078125,-0.11826982107162475,-0.04978705381285399,-0.0008301672138273715
1782942151066649000,2.614649169921875,-0.16712942130863664,-0.07108312248289585,-0.02432478710776195
1782942151076634000,2.624634033203125,-0.17730360932052133,-0.11018778303340077,-0.061044214755855496
1782942151086619100,2.634619140625,-0.15042027857005597,-0.13450056917611508,-0.058765364837367086
1782942151096604400,2.6446044921875,-0.1594797833383083,-0.12878913272675127,-0.025682247865013778
1782942151106589400,2.65458935546875,-0.18711539376080036,-0.11160934026911853,-0.0011695004370994866
1782942151116574200,2.66457421875,-0.16583002914786338,-0.10525153220761567,0.010063311515934766
1782942151126559200,2.674559326171875,-0.09337328022420406,-0.09915376332178712,0.00797192872725427
1782942151136544300,2.684544189453125,-0.03228723562061787,-0.10402759816953912,0.023052575214859098
1782942151146529300,2.694529296875,-0.005915361523628235,-0.11487329223481937,0.06230924798930063
1782942151156514000,2.70451416015625,0.006855272722244263,-0.1282433719448745,0.08502340329634026
1782942151166499000,2.7144990234375,0.03896598273217678,-0.14860712820086627,0.1185854263594374
1782942151176484400,2.724484375,0.03625672377347946,-0.15439815095877274,0.16062533664423972
1782942151186469400,2.734469482421875,-0.01114449434876442,-0.16260142249017953,0.1217856654391624
1782942151196454400,2.744454345703125,-0.0634516046911478,-0.18068019134784116,0.10328162037413567
1782942151206439200,2.754439208984375,-0.09255319601297378,-0.1847545646472834,0.09117096614064649
1782942151216424200,2.764424072265625,-0.12884849823117256,-0.17263879584725944,0.06644618339724838
1782942151226409200,2.7744091796875,-0.1355383512586355,-0.16346319041866808,0.07629250942794606
1782942151236394200,2.784394287109375,-0.1408943253338337,-0.12790051332395522,0.07030105046080425
1782942151246379300,2.794379150390625,-0.13655892647802828,-0.11836405696002766,0.06283613967392593
1782942151256364300,2.8043642578125,-0.13179858020842075,-0.12075487935300916,0.032190478981565684
1782942151266349300,2.814349365234375,-0.09442892675697803,-0.1403882024426013,0.028401553293690082
1782942151276334300,2.824334228515625,-0.09791501530706882,-0.13532578622018918,0.05872183622289449
1782942151286319400,2.8343193359375,-0.11187456707656383,-0.1158968631288968,0.06657032123357057
1782942151296304000,2.84430419921875,-0.1309112759798765,-0.10761877279561012,0.056848900224175304
1782942151306289200,2.8542890625,-0.10012158544063568,-0.1223956322973594,0.036997952328529204
1782942151316274200,2.864274169921875,-0.11185703141987323,-0.1385123438344337,0.03549733850723132
1782942151326259200,2.87425927734375,-0.1393611244171858,-0.11920699232388288,0.03786249673599377
1782942151336244200,2.884244140625,-0.1272480772972107,-0.10091304634558036,0.005172726462781429
1782942151346229200,2.894229248046875,-0.1422404792457819,-0.09417420307723805,-0.01847279141023755
1782942151356214300,2.90421435546875,-0.1491723243355751,-0.09099822165593505,-0.008963990238215773
1782942151366199300,2.91419921875,-0.16896774265170098,-0.09871148118069395,0.008302347991708666
1782942151376184300,2.924184326171875,-0.1395212834149599,-0.08172518373485654,-0.018205829303432255
1782942151386169000,2.934169189453125,-0.10020634111464023,-0.10392717000236734,0.05735703240940347
1782942151396154000,2.944154052734375,-0.11268412989377975,-0.07737206655927002,0.045745432005543256
1782942151406140400,2.954140380859375,-0.05751753846704959,-0.06159507183795795,0.012735800394508986
1782942151416125200,2.964125244140625,-0.0012906243324279784,-0.08892384480098262,0.009005308629292995
1782942151426110200,2.974110107421875,0.018731588476896283,-0.1268519175864756,0.02880206038597971
1782942151436095200,2.98409521484375,-0.08291676813960075,-0.12021521951835602,0.06880049143843352
1782942151446080300,2.994080322265625,-0.13624679178893565,-0.12004665801841764,0.06649292688211426
1782942151456065300,3.004065185546875,-0.12537643820643424,-0.14009738453617318,0.07141083833361044
1782942151466050000,3.014050048828125,-0.1279582713931799,-0.13116740616541356,0.07421298147384077
1782942151476035300,3.024035400390625,-0.1294827044814825,-0.10125555790662764,0.059169616523012517
1782942151486020400,3.034020263671875,-0.13280220429301262,-0.09205744838528335,0.027476967528369277
1782942151496005400,3.04400537109375,-0.10111001195609569,-0.1154898532305844,0.010217625294812023
1782942151505990100,3.053990234375,-0.07779869447350501,-0.11728649085639044,-0.005866864473093301
1782942151515975200,3.06397509765625,-0.062115972173213956,-0.11375564984912052,0.006714622142538428
1782942151525960200,3.073960205078125,-0.0553998156607151,-0.11500228890934959,-0.008140033569466323
1782942151535945200,3.0839453125,-0.018579612785577772,-0.11125714756427332,-0.006144877696875483
1782942151545930200,3.09393017578125,-0.04324994366168976,-0.09978227048367261,0.021561898265685886
1782942151555915300,3.103915283203125,-0.052477790734171866,-0.10694721194328739,0.046578540095128115
1782942151565900300,3.113900390625,-0.049720600980520245,-0.11429468862926587,0.05410151947848499
1782942151575885300,3.12388525390625,-0.06613280659914016,-0.12273100173156708,0.06441263174302876
1782942151585870300,3.133870361328125,-0.11443068130016326,-0.12223508970709517,0.06644757163673638
1782942151595855400,3.14385546875,-0.13176117080748082,-0.08942678935443982,0.04846798883723095
1782942151605840100,3.153840087890625,-0.09119067548811435,-0.06630233621345832,0.02396161635117605
1782942151615825200,3.1638251953125,-0.0905652370661497,-0.08445915700970218,0.009051431059651076
1782942151625810200,3.17381005859375,-0.09033785805106162,-0.10296932128826156,-0.0012313136269338429
1782942151635795500,3.18379541015625,-0.050552375629544254,-0.09360993852429092,-0.036157848242577166
1782942151645780200,3.1937802734375,-0.016414543706178664,-0.09725015819016844,-0.029390637396275995
1782942151655765200,3.20376513671875,-0.021008885759115217,-0.11501843632655218,-0.00003846884686499834
1782942151665750300,3.213750244140625,-0.07740531124174595,-0.13422735999161375,0.0020044168912805617
1782942151675735300,3.2237353515625,-0.1277495970785618,-0.1486998753850814,0.0405100703690201
1782942151685720300,3.23372021484375,-0.15051204850673675,-0.18551641586525364,0.09022237844523041
1782942151695705000,3.243705078125,-0.1518032573610544,-0.18042320264577866,0.07722555249435827
1782942151705690000,3.253690185546875,-0.16688918281197546,-0.14229074812829492,0.06483211753042414
1782942151715675400,3.26367529296875,-0.17179624407589433,-0.14019264333788306,0.08311002568937838
1782942151725661200,3.2736611328125,-0.1912000327259302,-0.12726200535786336,0.07580384912816807
1782942151735646200,3.283646240234375,-0.18574293636381625,-0.11075613010642119,0.03718921885062009
1782942151745631200,3.29363134765625,-0.1621779363811016,-0.10861143709477036,0.02229481565011665
1782942151755616300,3.3036162109375,-0.14131751918196678,-0.13401719697280787,0.024753716576937583
1782942151765601300,3.313601318359375,-0.12001461891233921,-0.1611896925287321,0.06515179620515554
1782942151775586300,3.32358642578125,-0.12596388270556927,-0.1720403184974566,0.09659677231535314
1782942151785571300,3.3335712890625,-0.10679214924573897,-0.1890695235032588,0.10105616287700832
1782942151795556400,3.343556396484375,-0.06788754131197929,-0.18878540933225302,0.095678999883309
1782942151805541400,3.353541259765625,-0.07406126151084899,-0.1640094626571983,0.09970222751740365
1782942151815526100,3.363526123046875,-0.11093640944361687,-0.14238627179148605,0.11023359493650495
1782942151825511200,3.37351123046875,-0.11534019736051558,-0.1083868345586583,0.09247249545957893
1782942151835497000,3.3834970703125,-0.12196399941444397,-0.08110211993306875,0.08757639398109167
1782942151845482000,3.39348193359375,-0.11000409702956676,-0.06334061859734356,0.06589296996127814
1782942151855466800,3.403466796875,-0.08888064498007298,-0.08999410438099875,0.04980363962147385
1782942151865451800,3.41345166015625,-0.08345511280000209,-0.12397760425917803,0.059064292985014616
1782942151875436800,3.423436767578125,-0.08416355333030223,-0.11913383575612678,0.040909664145857096
1782942151885422000,3.433422119140625,-0.07665829226672649,-0.11757573786024003,0.014179587728343903
1782942151895406800,3.44340673828125,-0.09281447729766368,-0.1269591773532331,-0.0020274507069960234
1782942151905391900,3.453391845703125,-0.1042120696246624,-0.12164415634293109,-0.003645991819538176
1782942151915377000,3.463376953125,-0.10020692563652991,-0.1077991525975056,0.002273132563754916
1782942151925362000,3.47336181640625,-0.07854395988285541,-0.10130337910372764,0.008329436928033828
1782942151935347000,3.483346923828125,-0.09625263505280017,-0.07524343876643105,-0.004813501228950918
1782942151945331700,3.493331787109375,-0.10739362227022647,-0.06928754430301487,-0.02593231363594532
1782942151955316700,3.503316650390625,-0.0689981329023838,-0.09673577892724423,-0.0498580366898328
1782942151965302000,3.513302001953125,-0.04180208294093608,-0.12220736144995316,-0.04086461942773312
1782942151975287000,3.523287109375,-0.050343701314926145,-0.12960958226416258,-0.009726188516058026
1782942151985271800,3.533271728515625,-0.04090250375270843,-0.11395146468216552,-0.004194382949918508
1782942151995256800,3.5432568359375,-0.023645079481601713,-0.10478181407032534,0.015366715153679251
1782942152005241900,3.553241943359375,0.005182371073961258,-0.09222613774938508,0.03155336838811636
1782942152015227000,3.563226806640625,-0.019703063857555388,-0.09025346770323812,0.062453387434035536
1782942152025212000,3.5732119140625,-0.012719780841469764,-0.11039073999328539,0.067299658421427
1782942152035198000,3.583197998046875,-0.03701192605495453,-0.11212256875457241,0.0845163853559643
1782942152045183000,3.593182861328125,-0.051553077104687685,-0.11042551904572173,0.08087675021197646
1782942152055168000,3.60316796875,-0.03648351826667785,-0.10866687534274533,0.034503888756781814
1782942152065152800,3.61315283203125,-0.04822948563992977,-0.1273912851601839,0.01314202484153211
1782942152075137800,3.6231376953125,-0.025274141988158225,-0.15694416391346602,0.026350502515397965
1782942152085122800,3.633122802734375,-0.031022914773225784,-0.15275333376065828,0.015523038226552306
1782942152095107800,3.64310791015625,0.015656418815255164,-0.1275481744886376,-0.010421915695257484
1782942152105092900,3.6530927734375,0.04070961152911186,-0.13587969377590342,0.017884506660886108
1782942152115078000,3.663077880859375,0.019832243195176125,-0.13251211703894658,-0.020482779525779187
1782942152125063000,3.67306298828125,0.036764088773727416,-0.15653361035119742,-0.02647880507018417
1782942152135048000,3.6830478515625,0.05855214221179485,-0.14970336247235536,0.007620375343225896
1782942152145033000,3.693032958984375,0.05943184765577316,-0.1101896279306151,-0.0067669733842834826
1782942152155017700,3.703017822265625,-0.01671615700125694,-0.09951218483801931,0.00858922037538141
1782942152165002800,3.713002685546875,-0.1016197150439024,-0.12028901540692895,0.06649119158275425
1782942152174987800,3.72298779296875,-0.11833061134815215,-0.1463653406234458,0.057250813822261985
1782942152184972800,3.732972900390625,-0.11995675124526023,-0.13485835137153043,0.020877368333935737
1782942152194958000,3.7429580078125,-0.13165537234544752,-0.11376518486244604,0.02621613554600626
1782942152204942800,3.75294287109375,-0.15522154137194155,-0.10487392193372361,0.012676307025924325
1782942152214928000,3.762927978515625,-0.141177233928442,-0.08367066437997855,-0.02874474070817232
1782942152224913000,3.772912841796875,-0.1046867013990879,-0.057070616683457046,0.06979293654188513
1782942152234898000,3.78289794921875,-0.15983517264723776,-0.08950211047981865,0.04004022436756641
1782942152244883000,3.792883056640625,-0.12357727982997893,-0.08209396224832162,0.008206796929053961
1782942152254867700,3.80286767578125,-0.051286535122990605,-0.03495012555378489,-0.008712262233160436
1782942152264852700,3.812852783203125,-0.05525953040719032,-0.0035699674412608146,0.03540467352140694
1782942152274838000,3.822838134765625,-0.1274427230864763,-0.014277239416539668,0.054217181747406716
1782942152284823000,3.832822998046875,-0.16676234156191347,-0.041582786767603824,0.11363361263833939
1782942152294807800,3.842807861328125,-0.18207506150603292,-0.04406174410176463,0.10344908589553087
1782942152304792800,3.852792724609375,-0.17686229529380798,-0.030959512414503843,0.0987992142630741
1782942152314777900,3.86277783203125,-0.18632161303460598,-0.033644239720143375,0.08515128572601824
1782942152324763000,3.872762939453125,-0.18385726874768732,-0.06757177162738516,0.08795173009950667
1782942152334748000,3.882747802734375,-0.15577917525470256,-0.0942896644167602,0.0944415670428425
1782942152344734000,3.89273388671875,-0.1571674147427082,-0.10907594933398067,0.14250548685751854
1782942152354719000,3.902718994140625,-0.1621077937543392,-0.10351760282078758,0.15855667714402077
1782942152364704000,3.9127041015625,-0.11264204431772232,-0.05945281737856566,0.1129922459948808
1782942152374688800,3.922688720703125,-0.07046586736738682,-0.04728139113485813,0.1080310433909297
1782942152384673800,3.932673828125,-0.09895780235826969,-0.06103699956377968,0.13741766219921409
1782942152394658800,3.942658935546875,-0.13231120590567588,-0.10740140371788293,0.15908771528080104
1782942152404643800,3.952643798828125,-0.14741992771029472,-0.14459867801079526,0.15353651089444756
1782942152414628900,3.96262890625,-0.18074819681644438,-0.1528022418031469,0.13795666444674134
1782942152424614000,3.97261376953125,-0.20983751317858695,-0.13681172306216322,0.11652436564378439
1782942152434599000,3.982598876953125,-0.2014823572874069,-0.11407826939960941,0.07257321491017937
1782942152444583000,3.9925830078125,-0.22391981454491613,-0.12154825822040438,0.05913184179589152
1782942152454568000,4.00256787109375,-0.22069383823573588,-0.13047508565285243,0.04793174480237066
1782942152464553000,4.012552978515625,-0.16035013643205165,-0.11840184082030318,0.01968735483177006
1782942152474537700,4.022537841796875,-0.10619827500581741,-0.0967233213044703,-0.005552008103951811
1782942152484522800,4.032522705078125,-0.08659925604462623,-0.09238202243084087,-0.0055752428490668535
1782942152494507800,4.0425078125,-0.07180383797287941,-0.11975561178312637,-0.014920505756139754
1782942152504492800,4.052492919921875,-0.04376373840272426,-0.13235759319751522,-0.001212006138265133
1782942152514478000,4.06247802734375,-0.046102995005249975,-0.11959812879962846,0.026699717811867592
1782942152524462800,4.072462890625,-0.08837152641415595,-0.1016345838194713,0.04436528449244797
1782942152534447900,4.08244775390625,-0.13021101875603197,-0.07566731760115362,0.03630903848260641
1782942152544433000,4.092432861328125,-0.15879063203036783,-0.05665907674049958,-0.0033086130913347004
1782942152554418000,4.10241796875,-0.13901391841471195,-0.06805538129271008,-0.042105303671211
1782942152564403000,4.11240283203125,-0.0682967066347599,-0.08383770977626555,-0.08290990000739693
1782942152574387700,4.1223876953125,0.040325580647587775,-0.09225378380813636,-0.0922515827178955
1782942152584372700,4.132372802734375,0.06718903765380382,-0.0796967557803262,-0.07856631784513592
1782942152594358000,4.14235791015625,0.08345394375622273,-0.06629072797405533,-0.08771328170113266
1782942152604343000,4.152343017578125,0.11462006639242171,-0.04797727357768453,-0.08754881185442209
1782942152614327800,4.162327880859375,0.020834698235988616,-0.04389086278057657,-0.03193447666019201
1782942152624312800,4.172312744140625,-0.03701660223007202,-0.07615515591702424,-0.012861235138773918
1782942152634297900,4.1822978515625,-0.03504325633049011,-0.10701465115630998,-0.01054879347793758
1782942152644283000,4.192282958984375,-0.059631754142045974,-0.1481475478651002,-0.00811031428463757
1782942152654268000,4.202267822265625,-0.07933890965282916,-0.15167317384113557,-0.03222341313678771
1782942152664253000,4.2122529296875,-0.1025520274579525,-0.152764156548772,-0.03422857894673943
1782942152674239000,4.222239013671875,-0.13754969108104706,-0.1622291916443035,-0.024301424498483538
1782942152684224000,4.23222412109375,-0.12243161692619323,-0.14279179298561065,0.006542809239588677
1782942152694208800,4.242208740234375,-0.15959084249734878,-0.13026271241065113,0.020600231892988083
1782942152704193800,4.25219384765625,-0.18421265805661677,-0.13818719440014102,0.031665961917117236
1782942152714178800,4.2621787109375,-0.1660205832839012,-0.1403655978851486,0.02398976473342627
1782942152724163800,4.272163818359375,-0.16457739873826502,-0.17383003319213167,0.03762194771207869
1782942152734148900,4.28214892578125,-0.15073708943426609,-0.2061845984279178,0.03923767581302672
1782942152744134000,4.2921337890625,-0.13380232124626637,-0.21908906992021948,0.05466163757927715
1782942152754119000,4.302118896484375,-0.1546399420917034,-0.22599053813805803,0.08333455516025423
1782942152764104000,4.31210400390625,-0.19873627344965933,-0.2087199073255062,0.09285210589431225
1782942152774089000,4.3220888671875,-0.19823650723397732,-0.19930472098737953,0.08150302888415753
1782942152784073700,4.33207373046875,-0.1604793157696724,-0.18053546738121656,0.0816345097767189
1782942152794058800,4.342058837890625,-0.1414952138364315,-0.1297827286076732,0.07820888270959257
1782942152804043800,4.352043701171875,-0.1516203020095825,-0.10273448961907997,0.050653717112168664
1782942152814029000,4.362029052734375,-0.1306505792170763,-0.10119118743352591,0.06869582548756152
1782942152824013800,4.372013916015625,-0.15950433325767516,-0.10013203376941382,0.11247534598130732
1782942152833998000,4.381998046875,-0.18564415216445923,-0.09628655558871105,0.09498992164060473
1782942152843983400,4.3919833984375,-0.14409049102663993,-0.128931135013327,0.06974032957181334
1782942152853968400,4.401968505859375,-0.07661153051555156,-0.1609509336031042,0.052122511023096736
1782942152863953400,4.411953369140625,-0.05850538046061992,-0.16660751632638274,0.034411972689628596
1782942152873938400,4.4219384765625,-0.08289630987346172,-0.15975673711616545,0.03882175195589661
1782942152883923200,4.431923095703125,-0.0867746126115322,-0.13045540370484812,0.026259170970134436
1782942152893908200,4.441908203125,-0.08691314429938793,-0.10438498763930983,0.01618647057134658
1782942152903893200,4.451893310546875,-0.07361936296224594,-0.08618011731710284,0.004759213758446276
1782942152913878300,4.461878173828125,-0.06263210500180721,-0.08653835617024451,0.0222556344171986
1782942152923863300,4.47186328125,-0.051989130434393876,-0.10310964307440444,0.03421232193168253
1782942152933848300,4.481848388671875,-0.05348024577498436,-0.11701120844581164,0.04024561074655503
1782942152943833300,4.491833251953125,-0.06779226424396037,-0.13277155342642216,0.01329560796804726
1782942152953818400,4.501818359375,0.010289338824152946,-0.12281055150749161,0.06888977715708315
1782942152963803400,4.511803466796875,0.0009124386698007583,-0.1614205421425402,-0.016342720578983425
1782942152973789200,4.5217890625,-0.010563479590415955,-0.22617661702837794,-0.04715937219038605
1782942152983774200,4.531774169921875,0.006204115337133408,-0.1814525456935167,-0.017048640358634293
1782942152993759500,4.541759521484375,-0.012656067955493927,-0.15911142494995145,-0.0045078328132629394
1782942153003744300,4.551744140625,-0.07270633977055549,-0.16367075048843396,0.01427859112340957
1782942153013729300,4.561729248046875,-0.04643091178536415,-0.18514290637774392,0.026655622941814363
1782942153023714300,4.57171435546875,-0.14158113855421542,-0.15830746988961472,0.04262297086976468
1782942153033699300,4.58169921875,-0.14929039775729178,-0.07057223208500071,-0.0051970937190577386
1782942153043684400,4.591684326171875,-0.14811375519335268,-0.020299477114435284,-0.06025620618332177
1782942153053669000,4.601669189453125,-0.14519640644192694,-0.06773987190301996,-0.04814206308480352
1782942153063654100,4.611654052734375,-0.16398995423913001,-0.12231042909878305,0.0054375148788094515
1782942153073639400,4.621639404296875,-0.18651041360497472,-0.15126812757104635,0.0035850919451564547
1782942153083624400,4.63162451171875,-0.21313538568019866,-0.2039933719939552,-0.03849014538135379
1782942153093609200,4.641609130859375,-0.23804361696541307,-0.26049407983496786,-0.05565981830377131
1782942153103594200,4.65159423828125,-0.2141051074951887,-0.28257806574599814,-0.06207271755337715
1782942153113579300,4.661579345703125,-0.1822510025948286,-0.2716641652827151,-0.03579177314285189
1782942153123564300,4.671564208984375,-0.1471767666041851,-0.2290255584524013,-0.022610220008529722
1782942153133549300,4.68154931640625,-0.13601999729573727,-0.16932550658080725,-0.024232304785028098
1782942153143534000,4.6915341796875,-0.133782447502017,-0.13142511638668364,0.0013722382012754679
1782942153153519400,4.701519287109375,-0.12016659460365771,-0.11608274108981713,0.021160423059016466
1782942153163504400,4.71150439453125,-0.15034896689951419,-0.11870870567923411,0.01366615831349045
1782942153173489400,4.721489501953125,-0.1485936476647854,-0.13651395482514053,0.009599858722649514
1782942153183474200,4.73147412109375,-0.11907587675750254,-0.15274713234873488,-0.0017808920674026011
1782942153193459200,4.741459228515625,-0.07241232526004314,-0.14745051464480347,0.0024863734556362033
1782942153203444200,4.7514443359375,-0.030086510705947873,-0.1493847341103945,-0.013898798025585711
1782942153213429200,4.76142919921875,-0.005326747980713844,-0.16571935358131304,0.0008357932370156049
1782942153223414300,4.771414306640625,0.00663841510117054,-0.18259908538013694,0.06320544791035354
1782942153233399300,4.7813994140625,-0.015449498066306114,-0.19505283569656312,0.10228873687926679
1782942153243384300,4.79138427734375,-0.012167407655715941,-0.1633471993561834,0.11619681418985128
1782942153253369300,4.801369384765625,-0.02461129416525364,-0.10219102125898934,0.093502532627061
1782942153263355100,4.811355224609375,-0.02971124765276909,-0.07063287166447844,0.05794840416498482
1782942153273340200,4.821340087890625,-0.041103579282760615,-0.07199625070586335,0.035159210860356685
1782942153283325200,4.8313251953125,-0.054904725620150564,-0.1044061491583474,0.08168028514720499
1782942153293310500,4.841310546875,-0.11525076551139354,-0.15049634861410593,0.1559353521971032
1782942153303295500,4.85129541015625,-0.1604395682811737,-0.1621884029761888,0.1828194866651669
1782942153313280300,4.8612802734375,-0.16254910778105258,-0.13093221830320545,0.15204521289076656
1782942153323265300,4.871265380859375,-0.19635317770540714,-0.0538468460310949,0.09825093273054808
1782942153333250300,4.881250244140625,-0.22310966720581055,0.021832732830010353,0.07988339179307222
1782942153343235300,4.8912353515625,-0.2507914548575878,0.04002395821935497,0.09300309520494192
1782942153353220400,4.901220458984375,-0.217948338919878,0.030495705711480695,0.07465838715378195
1782942153363205000,4.911205078125,-0.16894903795123098,0.07244455159578937,0.06079118984285742
1782942153373190400,4.9211904296875,-0.05283493360877037,0.09292871479447931,0.0434358946878463
1782942153383175400,4.931175537109375,-0.00946224035024643,-0.13454846343845128,0.09648191376402973
1782942153393160400,4.941160400390625,0.0010626607954502105,-0.23865515472618862,0.13785134090874343
1782942153403145200,4.951145263671875,0.07407295194864273,-0.22532708752695468,0.18055846466431394
1782942153413130200,4.961130126953125,0.1217705226689577,-0.17556798116695135,0.19179734103195367
1782942153423115300,4.971115234375,0.06847790842056274,-0.13344189043603838,0.14242728878846392
1782942153433100300,4.981100341796875,0.02063712983727455,-0.12316815103981643,0.2020503847000189
1782942153443085300,4.991085205078125,-0.08588087864220142,-0.11316292638666928,0.21594711863268165
1782942153453070300,5.0010703125,-0.1864677435070276,-0.11127573353373445,0.19169782618023454
1782942153463055400,5.011055419921875,-0.2516875269144773,-0.11023616135292685,0.14176102516576647
1782942153473040400,5.021040283203125,-0.26247370934486386,-0.10832450991217046,0.10016129639651626
1782942153483025400,5.031025390625,-0.2694447174012661,-0.11241250987816602,0.11464078038688748
1782942153493010200,5.04101025390625,-0.2230330948382616,-0.1004751663849689,0.1275874470531009
1782942153502995200,5.0509951171875,-0.15688041449487208,-0.07939991912506521,0.13452957607489077
1782942153512980200,5.060980224609375,-0.08137947556972504,-0.07141904447295237,0.1357820968866348
1782942153522965200,5.07096533203125,-0.009273439779877662,-0.08395507081192917,0.12234620366506278
1782942153532950500,5.080950439453125,0.0357493587732315,-0.11980221827067435,0.1553225723273121
1782942153542935300,5.090935302734375,0.05339899723231792,-0.1584195519619621,0.22034648610278962
1782942153552921300,5.10092138671875,0.049860886234045027,-0.13487118345363996,0.15367038467349484
1782942153562906400,5.11090625,0.053773675763607025,-0.08206866341028363,0.07248414838723838
1782942153572891100,5.12089111328125,-0.003211363261938095,-0.06173939394578337,0.05174945819331333
1782942153582876200,5.130876220703125,-0.16072656852900982,-0.04462474827938713,0.03169177221180871
1782942153592861200,5.140861083984375,-0.2041577139765024,-0.06842980409567244,0.027979053565301
1782942153602846500,5.150846435546875,-0.19647826538980007,-0.08598694196571595,0.06098497711559757
1782942153612831200,5.160831298828125,-0.1937976480036974,-0.0705072633902775,0.08084836436770856
1782942153622816300,5.170816162109375,-0.19736615414023398,-0.05363512580944225,0.0650916817820631
1782942153632801300,5.18080126953125,-0.16067746869027613,-0.0650078120240476,0.04866486311620101
1782942153642786300,5.190786376953125,-0.11701134544312954,-0.10787431845925748,0.07256932418635115
1782942153652771300,5.200771240234375,-0.0997849008321762,-0.1497804919623304,0.09760518217291682
1782942153662756000,5.210756103515625,-0.1103594863384962,-0.17418995254570618,0.09463334502158686
1782942153672741400,5.220741455078125,-0.10412965203821659,-0.19149386457335202,0.06550915827546268
1782942153682726400,5.230726318359375,-0.07088789217174053,-0.19207153659714385,0.03354750134740025
1782942153692711400,5.24071142578125,-0.04965922618210315,-0.1754807412749156,0.006625555619597435
1782942153702696400,5.250696533203125,-0.06750877112746238,-0.1738380521018058,-0.007574928766302764
1782942153712681200,5.26068115234375,-0.08775427129864692,-0.1682924554723315,-0.015339881945680827
1782942153722666200,5.270666259765625,-0.06739829649031162,-0.15299180955849587,-0.009312621012795716
1782942153732651300,5.2806513671875,-0.07360065826177596,-0.14038791018165647,0.024145448485482484
1782942153742636300,5.29063623046875,-0.09199380856454371,-0.13173095833230763,0.005685206029564142
1782942153752621300,5.300621337890625,-0.09777239196598529,-0.12010253465780987,-0.013553564784489571
1782942153762606300,5.3106064453125,-0.13168459843993185,-0.14968305033668874,-0.050913281363807614
1782942153772591400,5.32059130859375,-0.09303484205007552,-0.17343964563505723,-0.07871675916649401
1782942153782576400,5.330576416015625,-0.06264671804904938,-0.18931586294714361,-0.04632602663878351
1782942153792561400,5.3405615234375,-0.028095629149675366,-0.1989192470674403,-0.003095700993016362
1782942153802546200,5.350546142578125,-0.017797522497177122,-0.16392748346216976,0.023878924770094453
1782942153812531200,5.36053125,-0.022602292430400846,-0.12643875194201246,0.015356924412027
1782942153822516200,5.37051611328125,-0.022731471768021583,-0.11647197786942123,-0.015869970234390348
1782942153832501000,5.3805009765625,-0.030595044749975202,-0.10468021685937419,-0.046537020774651314
1782942153842486800,5.39048681640625,-0.04290039957165718,-0.12904666941808535,-0.06919002047898247
1782942153852471800,5.400471923828125,-0.0683142422914505,-0.18003400239879264,-0.013648695722036064
1782942153862457000,5.41045703125,-0.05818623150885105,-0.2041966029484756,0.0427007488137111
1782942153872442000,5.420442138671875,-0.046642508709430694,-0.2027257084120065,0.06421415002886205
1782942153882427000,5.430427001953125,-0.06617839930653571,-0.1754460352877155,0.06260238571697846
1782942153892412000,5.440411865234375,-0.11982874095141886,-0.14471689756298436,0.08461750764288008
1782942153902397000,5.45039697265625,-0.15014964493513105,-0.12434656543573364,0.04646373634273186
1782942153912382000,5.4603818359375,-0.1778016219705343,-0.1174108296221122,0.024776421599090097
1782942153922367000,5.470366943359375,-0.2234334923326969,-0.13534313921378924,0.05838527947859838
1782942153932351700,5.480351806640625,-0.30023557698428627,-0.13440361160766331,0.08812862103637308
1782942153942337000,5.4903369140625,-0.35627252150475974,-0.09629488502563908,0.06649707333426923
1782942153952322000,5.500322021484375,-0.3967746277630329,-0.05923426099075004,0.020082418563961982
1782942153962307000,5.51030712890625,-0.3848953893989324,-0.02431912455195561,-0.004643642821069807
1782942153972291800,5.520291748046875,-0.3142956665188074,-0.031541659684013575,-0.012982085039466618
1782942153982276900,5.53027685546875,-0.17475334031581877,-0.06426014459505677,0.027236089710891247
1782942153992262000,5.540261962890625,-0.041112931632995606,-0.10173745967205614,0.06913233547499403
1782942154002247000,5.550246826171875,0.007715688943862915,-0.12521898262239992,0.06581362111475318
1782942154012232000,5.56023193359375,0.05397416677176952,-0.16622531207576394,0.07032322575999424
1782942154022217000,5.570217041015625,0.06170271519720554,-0.16681493026567623,0.05454802113696933
1782942154032202000,5.580201904296875,0.06947802537381649,-0.14773520420454442,0.025268205437716094
1782942154042187000,5.59018701171875,0.03688508480489254,-0.11346704216608777,0.019781974312663077
1782942154052172000,5.600172119140625,-0.022430442994832992,-0.07689204622367396,0.030588359280861913
1782942154062156800,5.61015673828125,-0.08792378264665603,-0.05048683611266315,0.06940172700090333
1782942154072141800,5.620141845703125,-0.13607435783147812,-0.025755943288886918,0.044427115948591375
1782942154082126800,5.630126953125,-0.1515600962549448,0.0028402649272233245,-0.010098565492406487
1782942154092112000,5.64011181640625,-0.11279752714037894,0.03831721823355183,-0.05254460889268666
1782942154102097200,5.65009716796875,-0.09850187528431414,0.050484132698923344,-0.10939080570312217
1782942154112082000,5.66008203125,-0.042403555965423584,0.042983977068727836,-0.10635434235036373
1782942154122067000,5.67006689453125,0.007260346391797065,-0.003116661582654342,-0.05497634781794622
1782942154132053000,5.680052978515625,0.030228549525141715,-0.07297540250290185,0.0332845760948956
1782942154142037800,5.690037841796875,0.06868190656006336,-0.11793916434515267,0.07490932970754802
1782942154152022800,5.700022705078125,0.07087503269016743,-0.13652612018696964,0.0886702170997858
1782942154162007800,5.7100078125,0.06497720682322979,-0.14451275329301133,0.057335752159357066
1782942154171993000,5.7199931640625,0.02779576942026615,-0.14761190661843865,0.022726357201486826
1782942154181978000,5.72997802734375,-0.011624386820197105,-0.17408338689869268,0.029631113354954868
1782942154191963000,5.739962890625,-0.056260231882333755,-0.17215963402818887,0.04107561356360093
1782942154201948000,5.749947998046875,-0.04399871620237827,-0.1354402977116406,0.010774473726283759
1782942154211933000,5.759932861328125,-0.012542086187005043,-0.09453216793574393,-0.02381672798776999
1782942154221918000,5.76991796875,-0.00573474425971508,-0.06233230007132515,-0.013652093255519866
1782942154231902700,5.77990283203125,-0.030185294905304905,-0.0486148499620147,0.008692625950928777
1782942154241887700,5.7898876953125,-0.07276186935007571,-0.0824654441755265,0.009141995419934391
1782942154251873000,5.799873046875,-0.09353110113441944,-0.13568965109651906,0.04277901994800195
1782942154261858000,5.809858154296875,-0.12662263887524605,-0.1619102801545523,0.10764436389459296
1782942154271843000,5.819843017578125,-0.16274901426732538,-0.1646490574686788,0.13458284063208847
1782942154281827800,5.829827880859375,-0.15399346088171004,-0.16689963114075362,0.10716328411307185
1782942154291812900,5.839812744140625,-0.14880816719830034,-0.17555914027336983,0.09693860802296549
1782942154301798000,5.8497978515625,-0.16260580640435218,-0.17244276181850582,0.08332284645615146
1782942154311783000,5.859782958984375,-0.18087679163217543,-0.1752547687656246,0.09570113864988088
1782942154321767700,5.869767578125,-0.2046808610677719,-0.17469596583908423,0.10625038878554478
1782942154331753000,5.8797529296875,-0.21366730059981345,-0.14864954257048665,0.09640462901042773
1782942154341738000,5.889738037109375,-0.19615677835047243,-0.14325942876366898,0.07904392702793701
1782942154351723000,5.899722900390625,-0.21992460742890835,-0.1532718503425829,0.11721163552189245
1782942154361708000,5.9097080078125,-0.2682014393419027,-0.17400288727469743,0.11494390978561714
1782942154371692800,5.91969287109375,-0.2675081963807344,-0.1801079809504561,0.075061469795648
1782942154381677800,5.929677734375,-0.2025894417464733,-0.17395565059948712,0.04247194502651691
1782942154391662800,5.939662841796875,-0.17147241894900797,-0.16559901513727382,0.06444072532635181
1782942154401647900,5.94964794921875,-0.17627601983845234,-0.14668326573250814,0.09409501862749457
1782942154411633000,5.9596328125,-0.1655325075060129,-0.14825504509387538,0.08928124340390786
1782942154421619000,5.969618896484375,-0.1293652155816555,-0.17533577984627335,0.07740953075913712
1782942154431604000,5.97960400390625,-0.11669745718836784,-0.20283603691868482,0.07589401162965223
1782942154441589000,5.989589111328125,-0.12035247256457805,-0.17811247801799326,0.08093246245458721
1782942154451573800,5.99957373046875,-0.08751461732387542,-0.15309158013854174,0.05326916030757129
1782942154461558800,6.009558837890625,-0.0564846882879734,-0.12054811386768706,0.041022495136875656
1782942154471544000,6.0195439453125,-0.0588245294123888,-0.1405475120570045,0.011908482724893837
1782942154481529000,6.029529052734375,-0.03691080376803875,-0.1566934770880267,0.01623770756823942
1782942154491513900,6.039513916015625,-0.02679623698890209,-0.157679236722365,0.04262370152212679
1782942154501499000,6.049498779296875,-0.06933949368596076,-0.13980716028478926,0.07114353830008767
1782942154511484000,6.05948388671875,-0.11068506503105163,-0.09929078803914598,0.06147114406418986
1782942154521469000,6.069468994140625,-0.12091069096922874,-0.08813333374410867,0.02788557572872378
1782942154531454000,6.079453857421875,-0.11632628578841686,-0.10060110345273278,0.03422544627473689
1782942154541438700,6.089438720703125,-0.1087561427950859,-0.11505402822974137,0.07697375142406672
1782942154551424000,6.099424072265625,-0.10478607012033461,-0.12966016167392955,0.06904547917544841
1782942154561409000,6.109408935546875,-0.06985445747077465,-0.14180583242187275,0.03618006920753978
1782942154571394000,6.11939404296875,-0.08836042049825191,-0.12959183654491788,0.06323213498787954
1782942154581378800,6.12937890625,-0.14981529841423033,-0.09005652035903185,0.0426165319958236
1782942154591363800,6.13936376953125,-0.12626198886930942,-0.04514278537069913,-0.0032531017781235274
1782942154601348900,6.149348876953125,-0.12648176909983158,-0.01292756924009882,-0.018833861541282384
1782942154611334000,6.159333984375,-0.1461439164251089,0.003606705555343069,0.010783880875445902
1782942154621319000,6.16931884765625,-0.191243287345767,-0.014656607822678051,0.06737648651730269
1782942154631304000,6.179303955078125,-0.20401684420108793,-0.040904517613281496,0.09417071421220898
1782942154641289000,6.1892890625,-0.18356383875906465,-0.025735384558048097,0.07414144147443584
1782942154651274000,6.19927392578125,-0.17463175976276396,0.011278548507613595,0.038521773495478556
1782942154661259000,6.209259033203125,-0.1303887134104967,0.025099164447165093,-0.02868233386329375
1782942154671244000,6.219244140625,-0.05877192244231701,0.002306147775723366,-0.04733102069655433
1782942154681228800,6.229228759765625,-0.03087269264757633,-0.02405001387054799,-0.015209122572327032
1782942154691213800,6.2392138671875,-0.034730537119507784,-0.035550141840125435,0.02874974567685276
1782942154701198800,6.24919873046875,-0.06885375599563122,-0.039765868972172026,0.059850365328788756
1782942154711185000,6.259184814453125,-0.09133271430730819,-0.050238697437336666,0.08971415492845698
1782942154721170000,6.269169921875,-0.12624269964694976,-0.01328435135509353,0.018665126511408014
1782942154731155000,6.279155029296875,-0.1346592303365469,-0.02043502454404952,-0.014320813696784897
1782942154741140000,6.289139892578125,-0.13436755391359329,-0.06650353960767388,0.007620384476380422
1782942154751124700,6.299124755859375,-0.122972884196043,-0.10063421113789081,0.03215411989339627
1782942154761109800,6.30910986328125,-0.10646598603129387,-0.09815472408076747,0.021576566111855208
1782942154771095000,6.319094970703125,-0.07244096683263779,-0.07470616725168656,-0.007840018576430156
1782942154781080000,6.329080078125,-0.05921908168792724,-0.025444356589065863,-0.04316527931923046
1782942154791065000,6.339065185546875,-0.04377484431862831,-0.008918379264511167,-0.04594494576617144
1782942154801049900,6.3490498046875,-0.017281974190473556,-0.04144791290813591,-0.007286960404086858
1782942154811035000,6.359034912109375,0.010232640200853347,-0.047039353406755254,-0.013601792406965978
1782942154821020000,6.36902001953125,0.018418869265913962,-0.06463205121394712,-0.013874494701391085
1782942154831009000,6.379009033203125,0.008777765217423439,-0.10502292021666652,0.005382341492315754
1782942154840994000,6.388994140625,-0.04980886378586292,-0.13516645833947696,0.029693273604661223
1782942154850979000,6.39897900390625,-0.13279051385521887,-0.1368458901932463,0.030991588053200392
1782942154860964000,6.408964111328125,-0.1548579687565565,-0.13445293064210564,0.009243126840004697
1782942154870949000,6.41894921875,-0.15474983220696448,-0.1276193948276341,-0.010317889065202325
1782942154880934000,6.428933837890625,-0.17345277911126614,-0.11595458466550335,-0.016924575587548313
1782942154890919000,6.4389189453125,-0.19779870033860206,-0.10782482589487917,-0.030231654797680675
1782942154900904000,6.448904052734375,-0.18306231897771358,-0.13255896098851225,-0.02531687601818703
1782942154910889000,6.458888916015625,-0.16174539018273354,-0.1670852533733472,0.011130940747447311
1782942154920874200,6.468874267578125,-0.09645721771419048,-0.16075265281833706,0.004871323230257257
1782942154930859000,6.47885888671875,-0.03703881406188011,-0.14900186313949523,0.06481806160560809
1782942154940844000,6.488843994140625,-0.07267945176362992,-0.13875106622744351,0.09256611942662857
1782942154950829000,6.4988291015625,-0.06883738938272,-0.1087882732327096,0.055193013642774895
1782942154960814000,6.50881396484375,-0.098517072853446,-0.09992426363709382,0.061609995412454
1782942154970798800,6.518798828125,-0.11965455342829227,-0.06782121634380892,0.04709081873251125
1782942154980783900,6.528783935546875,-0.10006313325166702,-0.030663178082741795,0.016393975842185316
1782942154990770200,6.538770263671875,-0.0641314036488533,-0.04660361973745748,0.037780946799227964
1782942155000755000,6.5487548828125,-0.06245324130356311,-0.0834667575720232,0.06165777094378136
1782942155010740000,6.558739990234375,-0.04475684109330177,-0.10209407282369211,0.0680013084513368
1782942155020725000,6.56872509765625,-0.014053075271844863,-0.13281619628574698,0.06481617560919839
1782942155030710000,6.5787099609375,-0.04247895928919315,-0.16832243048548698,0.04734758367228787
1782942155040695000,6.588695068359375,-0.02767769599854946,-0.15469225680083035,-0.0036080709619447588
1782942155050679800,6.5986796875,0.003113748106360435,-0.06911420616325922,0.06464373708516359
1782942155060664800,6.608664794921875,-0.030454174974560735,0.00836374105643481,0.09658616872294805
1782942155070650000,6.618650146484375,-0.12791560129523277,-0.005771651337156072,0.08805646911561489
1782942155080635100,6.62863525390625,-0.16805471946001052,-0.0642893706895411,0.10679161952277645
1782942155090620200,6.6386201171875,-0.1387462073892355,-0.11583244699002243,0.04097964237583801
1782942155100605000,6.64860498046875,-0.09011807782053947,-0.08974235810963437,0.006624350043199956
1782942155110590000,6.65858984375,-0.043131285718083376,-0.04011674193618819,0.0724520270827692
1782942155120575000,6.668574951171875,-0.030861586731672285,-0.011467223497107625,0.0992278240718413
1782942155130560000,6.67856005859375,-0.041188919478654856,-0.060983698473963885,0.05740666197109967
1782942155140544800,6.688544677734375,-0.07427052034735679,-0.16982494400292633,0.02443819348751567
1782942155150530000,6.698530029296875,-0.07669394810199737,-0.22046021214295178,0.0030359062303323297
1782942155160515000,6.70851513671875,-0.019133155015110967,-0.179710085940361,-0.001603233945555985
1782942155170500000,6.7185,-0.04569032255113124,-0.11524223514506593,0.04386784723117016
1782942155180485000,6.728485107421875,-0.10187690467536449,-0.08216714621554129,0.048531208532862365
1782942155190470000,6.738469970703125,-0.16163140841424464,-0.08822672938229516,-0.0129787514380645
1782942155200455000,6.748454833984375,-0.1945645407229662,-0.12947865849402732,-0.06323259164560587
1782942155210440000,6.75843994140625,-0.1741898612141609,-0.13108526257360353,-0.05879137606145814
1782942155220425000,6.768425048828125,-0.2003366943836212,-0.13999365016706286,0.012116764313867314
1782942155230410000,6.778409912109375,-0.2320125201076269,-0.17351926847621799,0.02987859444315545
1782942155240395000,6.78839501953125,-0.12076105336546897,-0.17681483942288903,-0.06875368402148596
1782942155250380000,6.798380126953125,0.053497781431674954,-0.16767828736305235,-0.15052474359152837
1782942155260365000,6.808364990234375,0.14408464580774305,-0.1550685427673161,-0.050607535316306164
1782942155270350000,6.81835009765625,0.13870587537884713,-0.12443036212851293,0.1257413990613073
1782942155280334800,6.8283349609375,0.06445172164440155,-0.10032934643980115,0.2284828664104454
1782942155290321200,6.838321044921875,0.01128653316795826,-0.07679676002250052,0.15793920283280313
1782942155300306200,6.84830615234375,-0.046945291048288346,-0.0612626250131987,0.031917402227804995
1782942155310291000,6.858291015625,-0.10185936901867389,-0.07864700926537625,-0.08399137510117143
1782942155320276000,6.86827587890625,-0.09316869756281375,-0.0871873763971962,-0.10047817119280807
1782942155330261000,6.878260986328125,-0.054554597008228296,-0.09842730307760648,-0.026102656101016326
1782942155340246000,6.88824609375,-0.060546530899405475,-0.11851911052442154,0.0045851267000194635
1782942155350231000,6.89823095703125,-0.06461304968595505,-0.15944155195346102,0.016708329887827857
1782942155360215800,6.9082158203125,-0.042646717071533204,-0.1708257550759241,0.0007564717899542302
1782942155370201000,6.918201171875,-0.057632104757428165,-0.14844105091895907,0.014713539341418072
1782942155380186000,6.92818603515625,-0.12484335424304008,-0.13437703412799165,0.02439355062819086
1782942155390171100,6.938171142578125,-0.13593757970929146,-0.11259027759786694,0.03604391213986091
1782942155400156000,6.948156005859375,-0.1519558175742626,-0.10721466724043711,0.05288057198193855
1782942155410141000,6.958140869140625,-0.2290098311603069,-0.10305272525539622,0.04037830634866841
1782942155420126000,6.9681259765625,-0.3555757714122534,-0.1297870303234551,0.04179778122515417
1782942155430111000,6.978111083984375,-0.4455997412085533,-0.17296269403938203,0.015422792722471058
1782942155440096000,6.988095947265625,-0.3114046212524175,-0.11399025318943895,-0.05863167372141033
1782942155450081000,6.9980810546875,-0.2407569675773382,-0.05094798735100776,-0.06307887152177281
1782942155460066000,7.008066162109375,-0.20256898348033428,-0.08636350192683748,-0.032479214528761804
1782942155470051000,7.018051025390625,-0.05562018041312694,-0.1169561263908632,0.05608291168720461
1782942155480036000,7.0280361328125,0.13888707716464996,-0.0780234066074714,0.1481998899736907
1782942155490020900,7.038020751953125,0.4868552961826324,0.06888145685330964,0.2920107146755792
1782942155500006000,7.048005859375,-0.3466343400657177,-0.02635216246623313,0.3810383851772174
1782942155509991000,7.057990966796875,-0.25809154873788354,-0.15253996500461361,0.09942054276550188
1782942155519976000,7.067975830078125,-0.06438859328031539,-0.19073595887813716,-0.12598256000657565
1782942155529961200,7.077961181640625,0.1005389340698719,-0.0888139729520306,0.0024161668967921284
1782942155539946000,7.087946044921875,0.3900742533415556,0.04863653663743753,0.10017055741520597
1782942155549931000,7.097930908203125,0.4194569996923208,0.07319269394881557,0.10592754090619273
