time,seconds_elapsed,z,y,x
1782942166097608700,0.081608642578125,-0.14342004441916942,-0.1990518422048539,-0.03913300986215472
1782942166107593700,0.09159375,-0.15301789384782313,-0.21093878895137458,-0.07711118713337928
1782942166117578800,0.101578857421875,-0.16971885327994823,-0.22374029325954614,-0.09165434747710824
1782942166127563800,0.111563720703125,-0.20722820746302603,-0.22736129676830022,-0.08039327754396945
1782942166137548800,0.121548828125,-0.19883622669279574,-0.21911489848121998,-0.07310589701477438
1782942166147534800,0.131534912109375,-0.15785305891931056,-0.21343835068214684,-0.0685538597336039
1782942166157520000,0.141519775390625,-0.1307066933184862,-0.18567147856280206,-0.043146117961034174
1782942166167505000,0.1515048828125,-0.09025894759595393,-0.18403434234764426,0.014442147654667496
1782942166177489700,0.16148974609375,-0.061902037161588666,-0.18296821095347404,0.04863598408158868
1782942166187474700,0.171474609375,-0.05893617309331894,-0.15477847377955914,0.07851224957033992
1782942166197459700,0.181459716796875,-0.0851017109632492,-0.12199563666172325,0.08063687704149633
1782942166207444700,0.19144482421875,-0.11703706440627575,-0.1116266201974824,0.08434972355216741
1782942166217429800,0.2014296875,-0.138545716381073,-0.06586622808482498,0.0793843927623704
1782942166227414800,0.211414794921875,-0.1577121891438961,-0.0025862901661545036,0.10109923483375459
1782942166237399800,0.22139990234375,-0.14435411039888857,0.033436040329560636,0.10124335601218044
1782942166247384800,0.231384765625,-0.09826689748466014,0.04559373030886054,0.08832008848786353
1782942166257369900,0.241369873046875,-0.057872927775979036,0.04619523986596614,0.07477025003042072
1782942166267354600,0.251354736328125,-0.03776946642398834,0.03827084007486701,0.09356719536110758
1782942166277339600,0.261339599609375,-0.019489713367819784,-0.009032799424417317,0.13260733930803834
1782942166287324700,0.27132470703125,0.01953179894387722,-0.03231861713957041,0.14935926174242048
1782942166297309700,0.281309814453125,-0.001602174499630928,0.006341660644300281,0.15783223532699048
1782942166307294700,0.291294677734375,-0.08611001122295855,0.03625069589149207,0.189931510627456
1782942166317279700,0.30127978515625,-0.14543255328536034,0.03221680073291063,0.18844795753881335
1782942166327264800,0.3112646484375,-0.14804302804470063,0.04602569198533892,0.133185650652647
1782942166337250800,0.321250732421875,-0.2011515178978443,0.035438283530063924,0.12145097185838967
1782942166347235600,0.331235595703125,-0.19230361005365848,0.015144998694397508,0.11903528901878743
1782942166357220600,0.341220703125,-0.1454950971275568,0.004982793381251394,0.10718838202171027
1782942166367206000,0.351205810546875,-0.10445873786211013,-0.015759915722347796,0.1205736045019701
1782942166377191000,0.36119091796875,-0.04776362169384956,-0.059504876359365876,0.13654120815824716
1782942166387175700,0.37117578125,0.018922727134823798,-0.08121215617880224,0.1275721581524238
1782942166397160700,0.38116064453125,0.033661446583271026,-0.09971209132429212,0.1257036608668044
1782942166407145700,0.391145751953125,0.00992225907742977,-0.09523845304157584,0.08855305699352174
1782942166417130800,0.401130859375,-0.013946692287921905,-0.09843666456099599,0.06396163657251745
1782942166427115800,0.41111572265625,-0.00789279907643795,-0.12330887468475847,0.042248146208003164
1782942166437100500,0.4211005859375,-0.051125207081437106,-0.12207188023570924,0.040598260109126566
1782942166447085800,0.4310859375,-0.09053718001544475,-0.1289938980512321,0.06612462329268455
1782942166457070800,0.44107080078125,-0.13715630784928798,-0.13068053596392273,0.07389127523880451
1782942166467055900,0.451055908203125,-0.17626199131309986,-0.14138658409649504,0.04965772834476083
1782942166477040600,0.46104052734375,-0.20868717409968374,-0.1427771799383685,0.01748473022095859
1782942166487025700,0.471025634765625,-0.2188449954986572,-0.14185865858765317,0.023724866719543932
1782942166497010700,0.4810107421875,-0.230059632474184,-0.128154816878587,0.018893756768666208
1782942166506995700,0.49099560546875,-0.20687983241677282,-0.08953147357162088,-0.004319909025728702
1782942166516980700,0.500980712890625,-0.19155600655674934,-0.05678255698969587,-0.007190130699798464
1782942166526966800,0.510966796875,-0.1736719748198986,-0.05101464111274108,0.0016215002546086906
1782942166536951800,0.520951904296875,-0.147124744156003,-0.04821525618517771,0.03350052040051669
1782942166546936800,0.530936767578125,-0.10398001443445681,-0.013455346840713173,0.027269224795512855
1782942166556921600,0.540921630859375,-0.0236065010368824,0.028230507575720546,0.029052601080946622
1782942166566906600,0.55090673828125,0.007445639830827713,0.03185624205851927,0.061923372210562225
1782942166576891600,0.5608916015625,-0.02490881580710411,0.016029288981948046,0.09909300957787781
1782942166586876700,0.570876708984375,-0.04131634525060653,0.0016958258661441503,0.10774020721819251
1782942166596862000,0.580862060546875,-0.026774025157094,-0.018464644636400043,0.09773823396805673
1782942166606846700,0.5908466796875,-0.01882861911058426,-0.03061811509830877,0.09687288584299385
1782942166616831700,0.600831787109375,-0.03912906433939933,-0.010347571817412972,0.10086250346843152
1782942166626816800,0.610816650390625,-0.018806407278776166,0.03084090926982462,0.06543083234224469
1782942166636801800,0.6208017578125,0.014258826977014541,0.05370881210016086,0.07156104219295084
1782942166646786800,0.630786865234375,0.020304536882042885,0.04761697976477444,0.07773414133731275
1782942166656771600,0.640771484375,0.019662731847167013,0.056562612362392246,0.09065192896891384
1782942166666756600,0.650756591796875,0.038653848043084145,0.021989457761682568,0.10143792873620987
1782942166676742000,0.660741943359375,0.020415596041083336,-0.009014989773090929,0.0896896232753992
1782942166686727000,0.670726806640625,-0.024089900639653203,-0.024644155255239455,0.06732132226396352
1782942166696711700,0.680711669921875,-0.09004735067188739,-0.04408911616588011,0.06584171469807625
1782942166706696700,0.69069677734375,-0.13892916274070738,-0.06792451232150197,0.032466391579806804
1782942166716681700,0.700681640625,-0.1747130083054304,-0.07102066997224464,0.023386318947561085
1782942166726667500,0.71066748046875,-0.2176899802446365,-0.05938090291982516,0.01669094949476421
1782942166736652800,0.72065283203125,-0.23668577261567114,-0.0535524159620516,0.026972506871260703
1782942166746637800,0.730637939453125,-0.21076807202696798,-0.07763031563665718,0.02285195634253323
1782942166756622800,0.740622802734375,-0.20526772104501723,-0.08502716615600511,0.023138372068479657
1782942166766608000,0.75060791015625,-0.17776947326660156,-0.08529944375874474,0.04776873626038432
1782942166776592600,0.760592529296875,-0.11128478448987006,-0.07733745190361514,0.04447831641286611
1782942166786577700,0.77057763671875,-0.02084931128323078,-0.06982093879366293,0.04448576906695962
1782942166796562700,0.780562744140625,-0.013936170893907546,-0.054012690417561675,0.060107116568833587
1782942166806547700,0.790547607421875,-0.017647884893417357,-0.04947038907911628,0.05391640870254486
1782942166816532700,0.80053271484375,-0.024407880547642705,-0.03900078005092218,0.029649544060789047
1782942166826517800,0.810517822265625,-0.05060205999016761,-0.04461308524105698,0.016197284226305782
1782942166836502800,0.820502685546875,-0.08329203119277953,-0.07238949237372726,0.048542277916148305
1782942166846483500,0.8304833984375,-0.11866612691283225,-0.08610619356436655,0.07706234302297234
1782942166856468700,0.84046875,-0.16405717425644398,-0.08431530982591211,0.07199355185870081
1782942166866453800,0.850453857421875,-0.1849655222505331,-0.07823425461286679,0.03812047181874514
1782942166876438500,0.8604384765625,-0.17879414013922212,-0.09127817110847682,0.015642865213938057
1782942166886423600,0.870423583984375,-0.17302315552234648,-0.11476440676655619,0.033549985565431414
1782942166896408600,0.88040869140625,-0.12877894012629984,-0.12464163939217104,0.04891582393627614
1782942166906393600,0.8903935546875,-0.061302902224659915,-0.1092790524243377,0.039210422479920085
1782942166916378600,0.900378662109375,-0.04190671235918998,-0.06025830680886283,0.04570913684945553
1782942166926364700,0.91036474609375,-0.059388593035936355,-0.016133297345694155,0.029399003365822133
1782942166936349700,0.920349609375,-0.025222704061865806,0.015672547966148705,-0.02234112074356526
1782942166946334700,0.930334716796875,-0.0217635035187006,0.046834597215428944,-0.04010437564495951
1782942166956319500,0.940319580078125,-0.04924713824987411,0.059531654768437144,-0.021649266021884977
1782942166966304500,0.950304443359375,-0.07362754626870155,0.054273478511907156,0.013204093759693204
1782942166976289500,0.96028955078125,-0.09193710994124411,0.046593061810825016,0.011218874759227037
1782942166986274600,0.970274658203125,-0.06329612186849116,0.022559202207345513,-0.016066533986106513
1782942166996259600,0.980259521484375,-0.04878770404458046,-0.0003180895058438182,-0.02897993770353496
1782942167006244600,0.99024462890625,-0.04212766163349151,-0.03611784502575174,0.0008657499838620424
1782942167016229600,1.000229736328125,-0.04884849432110786,-0.06550009818617254,0.01328223702982068
1782942167026214700,1.010214599609375,-0.03391863621473312,-0.06072217972725629,0.00029014205299317833
1782942167036199700,1.02019970703125,-0.032763036438822744,-0.058329548969678575,-0.04689063825160265
1782942167046184400,1.030184326171875,-0.0592950695335865,-0.07145367282833903,-0.07926704999301581
1782942167056169500,1.04016943359375,-0.10048983423113822,-0.07210269305529073,-0.07609441130626947
1782942167066154500,1.050154541015625,-0.15496493626236915,-0.06252652573548256,-0.08100472397319972
1782942167076139800,1.060139892578125,-0.15598083530664444,-0.06778567010639235,-0.09132175452187657
1782942167086124500,1.07012451171875,-0.19931904177367685,-0.10977136598592624,-0.07512129195779561
1782942167096109600,1.080109619140625,-0.21776246095895765,-0.13919639884214846,-0.04693685201350599
1782942167106094600,1.090094482421875,-0.18692016344964504,-0.13564435065006836,-0.08142492214664816
1782942167116079600,1.10007958984375,-0.14885609799325467,-0.11348757349746301,-0.10185677520278841
1782942167126064600,1.110064697265625,-0.12184534147083759,-0.09122304338775575,-0.10095978983044623
1782942167136050400,1.120050537109375,-0.10027356113195418,-0.07905824781423434,-0.06340740022324025
1782942167146035700,1.13003564453125,-0.10781272446513175,-0.07820656288834288,0.0023337401771917937
1782942167156020700,1.140020751953125,-0.059200376987457275,-0.06990364864105358,0.016235570410080252
1782942167166005500,1.150005615234375,-0.018175123637914656,-0.06423979592677205,0.03966057740021497
1782942167175990500,1.159990478515625,-0.007021861460804939,-0.06005337708760053,0.06480948557350784
1782942167185975600,1.1699755859375,-0.03942424789369106,-0.06823898509815335,0.08575670427326113
1782942167195960600,1.179960693359375,-0.07607143228948116,-0.0832313322477974,0.08363664337936788
1782942167205945600,1.189945556640625,-0.09717617963850497,-0.07341375738754868,0.06753101949188858
1782942167215930400,1.199930419921875,-0.11278700574636459,-0.051237435284256935,0.04850534343924373
1782942167225915600,1.20991552734375,-0.10442834272384643,-0.03634938875930384,0.06171425950452685
1782942167235900700,1.219900634765625,-0.07769698766469955,-0.03221574128698557,0.08508454063273965
1782942167245885700,1.2298857421875,-0.04892915834188461,-0.0199860089847818,0.04976140791494399
1782942167255870500,1.239870361328125,-0.048643911659717556,-0.014640300575271247,0.035479821116849775
1782942167265855500,1.24985546875,-0.06516951452493668,-0.030584377225488422,0.06638714668639004
1782942167275840500,1.259840576171875,-0.06066518884301185,-0.05469488226175308,0.06784541920330375
1782942167285825500,1.269825439453125,-0.11665887874364853,-0.06406918860021978,0.08511420511864125
1782942167295810600,1.279810546875,-0.14407237084805966,-0.07383812027946114,0.09001991467569023
1782942167305795600,1.289795654296875,-0.13148878360688684,-0.0786427623485215,0.08504921359103172
1782942167315780600,1.299780517578125,-0.14321020106077192,-0.05236220153048634,0.07792199205961078
1782942167325765600,1.309765625,-0.17906360473036764,-0.03480495406258851,0.03661445116996765
1782942167335750700,1.319750732421875,-0.17502748108208177,-0.0342928215556778,0.01177720276173204
1782942167345736400,1.329736328125,-0.15281740283966064,-0.02006316587422043,0.0030513503946363926
1782942167355721500,1.339721435546875,-0.11486965723931788,-0.03943153615100309,0.02988525251280516
1782942167365706800,1.349706787109375,-0.07558335651159286,-0.05108609891375526,0.061369683850556606
1782942167375691800,1.35969189453125,-0.05515373194515705,-0.017410605538822708,0.06563947012424469
1782942167385676500,1.369676513671875,-0.026515081959962845,0.018615761811193076,0.042663887402042744
1782942167395661600,1.37966162109375,-0.014693126741051672,0.03206895322743803,0.01430620978269726
1782942167405646600,1.389646484375,-0.008042436680197716,0.012096059452556073,0.02958630609884858
1782942167415631600,1.399631591796875,-0.03949439052045345,-0.03473904921952635,0.07011716352757066
1782942167425616400,1.409616455078125,-0.06845978824198246,-0.07365832499945536,0.08527735979110002
1782942167435601400,1.419601318359375,-0.10580839890539645,-0.07611306120781228,0.06625913639254867
1782942167445586700,1.429586669921875,-0.13559738796949386,-0.072194627388753,0.06380925902239978
1782942167455571700,1.43957177734375,-0.14400222822129727,-0.06254353166921064,0.028266930595971643
1782942167465556700,1.449556640625,-0.11876549563407897,-0.03911848814645782,0.008720628202706575
1782942167475541500,1.45954150390625,-0.10532090764939785,-0.04308445090167224,-0.001470620541833341
1782942167485526500,1.469526611328125,-0.09224164584577083,-0.057446993981488045,0.0037602658489719032
1782942167495511600,1.479511474609375,-0.1053138933867216,-0.09353384108077734,0.013874065443128346
1782942167505496600,1.48949658203125,-0.12911504021286963,-0.12148947723787278,-0.006680062285810709
1782942167515481600,1.499481689453125,-0.16597557509839533,-0.12545396042205392,-0.01621975178644061
1782942167525466600,1.509466552734375,-0.19578268434107302,-0.08292873257203028,-0.03759644794464111
1782942167535451600,1.51945166015625,-0.2012742674946785,-0.04952628398481756,-0.06125997639838606
1782942167545437700,1.529437744140625,-0.18738310478627682,-0.02374970889985561,-0.09441924561318009
1782942167555422500,1.53942236328125,-0.18287994814813135,-0.0314496888179332,-0.08711286812257021
1782942167565407500,1.549407470703125,-0.2027899327546358,-0.07091549256471917,-0.05318093403484672
1782942167575392500,1.559392578125,-0.19639292519390583,-0.09870691460343077,-0.038038784884661433
1782942167585377500,1.56937744140625,-0.15922259370684622,-0.0838646617152728,-0.055288537305966015
1782942167595362600,1.579362548828125,-0.13843407270014285,-0.0341223420932889,-0.07046871691159903
1782942167605347600,1.58934765625,-0.13699673337340354,-0.01665774134490639,-0.07503799758851527
1782942167615332600,1.59933251953125,-0.11418401306271553,-0.01750736217787489,-0.07343297354467213
1782942167625317600,1.609317626953125,-0.09688216512799262,-0.012207538736704736,-0.07037497421354055
1782942167635302700,1.619302734375,-0.072945993745327,0.001716466795373708,-0.0840202358694747
1782942167645287400,1.629287353515625,-0.03639174832999706,-0.0035274982727132734,-0.0751961107596755
1782942167655272400,1.6392724609375,-0.04173778553307056,-0.009669800420012324,-0.06048880936279893
1782942167665257500,1.649257568359375,-0.015253683233261107,-0.04911689946632832,-0.04544522521626204
1782942167675242800,1.65924267578125,-0.021904957816004753,-0.08272482576407492,-0.03479720914755016
1782942167685227500,1.6692275390625,-0.01545709685087204,-0.1306075985918753,-0.02087879310604185
1782942167695212500,1.679212646484375,-0.03253507290184498,-0.167588398856204,-0.02443801995757967
1782942167705197600,1.689197509765625,-0.05548223324716091,-0.1703994742215611,0.01742397647704929
1782942167715182600,1.6991826171875,-0.12231237446069716,-0.15225063580237327,0.018906652782857417
1782942167725167600,1.709167724609375,-0.011512158617377281,-0.09942072542859241,-0.036675643305294214
1782942167735152400,1.71915234375,-0.07878478290140628,-0.12060893154367804,0.024592772127874193
1782942167745138700,1.729138671875,-0.16970833188593387,-0.15184811941608786,0.027124153769016265
1782942167755123700,1.739123779296875,-0.10663608190119266,-0.16388309633117168,0.021420608365163206
1782942167765108500,1.7491083984375,-0.05073123932778835,-0.14129408350745215,-0.011062259425409138
1782942167775093500,1.759093505859375,-0.007584171518683433,-0.10358728878982365,0.03621748774163425
1782942167785078500,1.76907861328125,-0.023463293173909185,-0.08237305318433791,0.06737878807224333
1782942167795063600,1.7790634765625,-0.03569266014993191,-0.0554686796458438,0.10100691690780222
1782942167805048600,1.789048583984375,-0.13272154027223587,-0.015560886018909512,0.14996939299739898
1782942167815033600,1.79903369140625,-0.2372673718959093,0.039724089356791226,0.13551785645987838
1782942167825018600,1.8090185546875,-0.2385480593562126,0.07119164262497797,0.1030429162474349
1782942167835003600,1.819003662109375,-0.23768238243758677,0.07624503529071808,0.13618757241498677
1782942167844989400,1.828989501953125,-0.2641127087235451,0.054854401938710357,0.13886186965815722
1782942167854974500,1.838974365234375,-0.2474766312211752,0.01581416666023433,0.11047533127050846
1782942167864959500,1.84895947265625,-0.245749953559041,-0.022539218865241854,0.09443795031365007
1782942167874944800,1.85894482421875,-0.3085094843327999,-0.08141721376422792,0.0967058221803978
1782942167884929500,1.868929443359375,-0.32282325636744497,-0.16918313896805048,0.059404813518375156
1782942167894914600,1.87891455078125,-0.2978425443679094,-0.21014537355136126,0.016213833502307533
1782942167904899600,1.888899658203125,-0.2400339139997959,-0.24817701630918307,-0.035249994416348636
1782942167914884600,1.898884521484375,-0.19131109188497064,-0.24450848386427387,-0.08255820049289614
1782942167924869600,1.90886962890625,-0.14041209477484226,-0.1967155447443947,-0.11953070785291492
1782942167934854400,1.9188544921875,-0.11269289772212504,-0.14881879819016902,-0.1456435656875372
1782942167944839400,1.92883935546875,-0.06900573168694972,-0.09470361551251262,-0.19550068906191737
1782942167954825700,1.93882568359375,-0.059012160938978195,-0.09723907967372797,-0.19882749539706854
1782942167964810500,1.948810546875,-0.06418751775026321,-0.1331921991244424,-0.165752616530098
1782942167974795500,1.95879541015625,-0.03038987756669521,-0.15733131833383812,-0.1078529468776658
1782942167984780500,1.968780517578125,0.011512743139266967,-0.14652675999654455,-0.06905903277676552
1782942167994765600,1.978765625,0.0603974778175354,-0.15566380524672566,-0.025868345021642744
1782942168004750600,1.98875048828125,0.09899579628109931,-0.1767462676987052,0.01572046049479395
1782942168014735400,1.9987353515625,0.12547346884012223,-0.18137922472897916,0.06590802139993757
1782942168024720600,2.008720703125,0.1523743352472782,-0.16166545681431888,0.06983505865056067
1782942168034705700,2.01870556640625,0.11135901876986026,-0.1207990472882986,0.08307210483178495
1782942168044690700,2.028690673828125,0.03379237948656082,-0.10018863192801364,0.11958393587749451
1782942168054675500,2.038675537109375,-0.0672375529706478,-0.06776322081256657,0.16459920871127395
1782942168064660500,2.048660400390625,-0.12786825502216814,-0.00556573523520492,0.18576675563082098
1782942168074645500,2.0586455078125,-0.14697978272736073,0.05816717061535455,0.1964022775441408
1782942168084630500,2.068630615234375,-0.135796709933877,0.09162205264270305,0.17463526689410208
1782942168094615600,2.078615478515625,-0.08720832785367966,0.1111203146431595,0.16549491544198244
1782942168104600600,2.0886005859375,-0.0534042579293251,0.11355245542721822,0.2006729040680453
1782942168114585600,2.098585693359375,-0.00869359406530857,0.07404570774869061,0.22706720919255166
1782942168124570600,2.108570556640625,0.06414367860853672,0.020042040887800976,0.2105932634493336
1782942168134555600,2.1185556640625,0.1588449925661087,0.01042452777745202,0.19996917624548077
1782942168144541400,2.12854150390625,0.20469255150556562,0.008439582771621644,0.18405940372366458
1782942168154526500,2.1385263671875,0.2771943086147308,0.01055786498367088,0.2198124157587066
1782942168164511700,2.14851171875,0.2698229030638933,-0.014214919336629099,0.2619087324058637
1782942168174496800,2.158496826171875,0.3553296876966953,-0.008493525465542915,0.25396193811986595
1782942168184481500,2.1684814453125,0.46860126208961006,-0.011933861478033941,0.2654260928770527
1782942168194466600,2.178466552734375,0.4992208567589521,-0.03600627441005781,0.2482902491590008
1782942168204451600,2.18845166015625,0.5325146390736103,-0.09337103346819058,0.199740518588759
1782942168214436600,2.1984365234375,0.5231383234411477,-0.17220997597593812,0.13559943379610775
1782942168224421400,2.20842138671875,0.3936410059124231,-0.2028596369899809,0.2719515856556594
1782942168234406400,2.218406494140625,0.18944997418820858,-0.27453515414176505,0.27616836310047654
1782942168244391700,2.2283916015625,0.1395692142099142,-0.25762460707956925,0.3952180825034156
1782942168254376700,2.238376708984375,-0.0542494765818119,-0.2282982488248497,0.5364066415434703
1782942168264361700,2.24836181640625,-0.278637493160367,-0.2371180082867853,0.34119835955686867
1782942168274346500,2.258346435546875,-0.494629437315464,-0.1431447894080542,0.1531114538827911
1782942168284331500,2.26833154296875,-0.8510013275414705,-0.006123085990175604,0.045814716115780175
1782942168294316500,2.278316650390625,-0.9011433688044548,0.13432669218024237,0.09595127748604863
1782942168304301600,2.288301513671875,-0.8870692507445812,0.1711837016681209,0.1031549252545461
1782942168314286600,2.29828662109375,-1.043532316610217,0.05972987162112258,-0.10052633031662553
1782942168324271600,2.308271728515625,-1.1115391003876924,-0.027655175922776106,-0.02853391096908599
1782942168334256600,2.318256591796875,-1.1527309424757957,-0.10616243650745599,0.08526201609149575
1782942168344242700,2.32824267578125,-1.0496721345394848,-0.17000126868421211,-0.032888343318924304
1782942168354227500,2.3382275390625,-0.9581447744429111,-0.10135611393796279,-0.0603590089706704
1782942168364212500,2.34821240234375,-0.9516466445952654,-0.04614353707819246,-0.08041373581010848
1782942168374197500,2.358197509765625,-0.8564297823309898,0.01508168766722083,-0.14578571410458535
1782942168384182800,2.368182861328125,-0.7494856573939322,0.1585816654548049,-0.257662655801326
1782942168394167600,2.37816748046875,-0.616576485595107,0.19980647823074832,-0.4053806896753609
1782942168404152600,2.388152587890625,-0.4412017985105514,0.10184228088655509,-0.49287419114597136
1782942168414137600,2.3981376953125,-0.2966740851104259,-0.04180079516614787,-0.5372759351912886
1782942168424122600,2.40812255859375,-0.09286357713639735,-0.1681565723992884,-0.5580136758588254
1782942168434107600,2.418107666015625,0.11686989114582538,-0.19995922110704703,-0.5155372738528996
1782942168444092400,2.428092529296875,0.1620768140941858,-0.18178093739766626,-0.44863593056667594
1782942168454077400,2.438077392578125,0.22577099536955356,-0.14251637357771396,-0.5040581407222896
1782942168464062700,2.448062744140625,0.28511925639510155,-0.11056379500525071,-0.556550654101558
1782942168474047700,2.4580478515625,0.31444647316634655,-0.08114886341793462,-0.5779060882760212
1782942168484032500,2.468032470703125,0.2923988920092582,-0.05870625506127253,-0.5311610325075685
1782942168494017500,2.478017578125,0.22770284021496773,-0.07477538286326453,-0.44339868750032035
1782942168504002600,2.48800244140625,0.17847499118745325,-0.14612829873086883,-0.3551397180825472
1782942168513987600,2.497987548828125,0.1145247893244028,-0.24067115245740858,-0.2181093199015595
1782942168523972600,2.50797265625,0.06672784988284111,-0.2503178642627783,-0.15748245377494022
1782942168533957400,2.517957275390625,0.04962473939061165,-0.17300724556716157,-0.11759813235513865
1782942168543943700,2.527943603515625,0.020723639076948165,-0.0872356177194044,-0.15279778482373804
1782942168553928700,2.5379287109375,0.023074586117267606,-0.019512235726881773,-0.15226417113738133
1782942168563913500,2.54791357421875,0.023793548041582107,-0.012517097876220941,-0.047198955282103265
1782942168573898500,2.5578984375,-0.025967969471216202,-0.001133022617921233,0.007355130269471556
1782942168583883500,2.567883544921875,0.02668868496119976,-0.041096491954848165,0.05072725727241486
1782942168593868500,2.57786865234375,0.12920213397443295,-0.015160707720182836,0.05633439309708774
1782942168603853600,2.587853515625,0.16620529220104216,0.051389739769138396,0.055817255621496586
1782942168613838600,2.597838623046875,0.1938309657514095,0.08510923668257891,0.07736154516525566
1782942168623823600,2.60782373046875,0.23814999994933603,0.03934741979781538,0.07113552852356805
1782942168633808600,2.61780859375,0.2779670465528965,0.029327362901717422,0.12252749678241089
1782942168643793700,2.627793701171875,0.1921148094832897,0.02415609774366021,0.26733994540804995
1782942168653778400,2.6377783203125,0.1497638604879379,0.048796289209835225,0.3116162912417203
1782942168663763500,2.647763427734375,0.12402034742236137,0.0797901240190491,0.2885950427468866
1782942168673748500,2.65774853515625,0.09006780893802642,0.0984131740875542,0.2604981166892685
1782942168683733500,2.6677333984375,0.07330430566370487,0.12071359749455005,0.2569822540554218
1782942168693718800,2.67771875,0.07901157739460468,0.11938337180409579,0.28244729723948986
1782942168703703600,2.68770361328125,0.09634966568648815,0.09966777725853025,0.31939437789730724
1782942168713688600,2.6976884765625,0.07424129425287246,0.07477726429309696,0.35630477980654685
1782942168723673600,2.707673583984375,0.05457037909924984,0.04784450491033494,0.36562918258868154
1782942168733659400,2.717659423828125,-0.002711597046256065,0.007474391001276672,0.36203839155510065
1782942168743644400,2.72764453125,-0.0809533591121435,0.0027497370995581147,0.338549963939935
1782942168753629700,2.737629638671875,-0.16785715106129645,0.036876974563673136,0.3216226849386468
1782942168763614700,2.74761474609375,-0.22210721216499804,0.06021813919525593,0.3038711570076644
1782942168773599700,2.757599853515625,-0.23610066620409487,0.0564819848742336,0.3131804718185216
1782942168783584500,2.76758447265625,-0.22734861994981764,0.004515139336884021,0.31042288020607084
1782942168793569500,2.777569580078125,-0.22353578366339205,-0.020503895379044113,0.30185322304768486
1782942168803554600,2.787554443359375,-0.22885142572820186,-0.08077500687055289,0.2778684815492481
1782942168813539600,2.79753955078125,-0.22097674683034418,-0.13143614010419696,0.24706596806105224
1782942168823524400,2.8075244140625,-0.2160661784350872,-0.14154738241508602,0.23741096335137263
1782942168833509600,2.817509521484375,-0.23117080858647823,-0.16657043571900576,0.22815266634169964
1782942168843494000,2.827493896484375,-0.22907822022140026,-0.1823888036303222,0.21631438104249537
1782942168853479000,2.83747900390625,-0.23047639658153055,-0.15474325633570551,0.1737698822364211
1782942168863464000,2.8474638671875,-0.20280220771431923,-0.11414218321498483,0.11455648137060925
1782942168873449000,2.857448974609375,-0.18665303694605825,-0.10327866123206914,0.08901945066256448
1782942168883434000,2.86743408203125,-0.18741642253398894,-0.09748089820612221,0.10375747599126771
1782942168893419000,2.8774189453125,-0.20847031647861003,-0.09441749204751104,0.0726135651868768
1782942168903404000,2.887404052734375,-0.22427754194140434,-0.09676712391357868,0.03284267754629254
1782942168913389000,2.89738916015625,-0.2335498126775026,-0.11685009046681225,0.01492324570249766
1782942168923374800,2.907374755859375,-0.2505786888897419,-0.1258493894804269,0.007797266280092299
1782942168933359900,2.91735986328125,-0.2515805594086647,-0.13349497233014554,0.03206796684674919
1782942168943345000,2.927344970703125,-0.23378303691148755,-0.11923472058102488,0.01067004523742944
1782942168953330000,2.937329833984375,-0.17748598015010356,-0.10733093229755758,-0.019282463825307784
1782942168963315000,2.94731494140625,-0.08680150061845779,-0.08507748983744531,-0.033664917181991036
1782942168973300000,2.957300048828125,-0.0356973363250494,-0.07299498398620635,-0.027794308115541934
1782942168983285000,2.967284912109375,-0.015231471401453017,-0.06399605029877276,-0.010185549656115471
1782942168993270000,2.97727001953125,-0.009669745621085166,-0.03990910880118608,-0.023956921909749507
1782942169003254800,2.9872548828125,-0.0101911391466856,0.00032722266037017104,-0.04365582104884088
1782942169013239800,2.99723974609375,-0.03339315103590488,0.037772827424854036,-0.051199258698336775
1782942169023224800,3.007224853515625,-0.07748831335008144,0.07539506739787757,-0.05060648043695837
1782942169033210000,3.017210205078125,-0.10489069953858851,0.09759933695401996,-0.06487367338351906
1782942169043195100,3.027195068359375,-0.12407295439243315,0.11719828284997492,-0.06440843049194664
1782942169053180000,3.037179931640625,-0.15455051024258135,0.110578791644983,-0.06719608844909816
1782942169063165000,3.0471650390625,-0.17645663710236548,0.09973857747241854,-0.051381848723627624
1782942169073150000,3.05714990234375,-0.23238544507324693,0.11403371787182986,-0.02438124826904386
1782942169083135000,3.067135009765625,-0.21297055050730704,0.12242076673861592,-0.04747874033786356
1782942169093119700,3.07711962890625,-0.17935761924088,0.13387166015543042,-0.042219139309227466
1782942169103104800,3.087104736328125,-0.11745850468873976,0.12898198841772973,0.0008571648186072706
1782942169113091000,3.097091064453125,-0.05850596498250961,0.11602766816802322,0.03719955758154392
1782942169123075800,3.107075927734375,-0.04505494725704193,0.11380432956274598,0.05419855011217296
1782942169133060900,3.117060791015625,-0.05629179606437683,0.11935005405638366,0.06937288449890912
1782942169143046000,3.1270458984375,-0.08348433889448642,0.1818716113558039,0.040483218894712625
1782942169153031000,3.137031005859375,-0.116799748519063,0.2511652200734243,-0.016996946704015133
1782942169163016000,3.147015869140625,-0.12458733365535736,0.2805351069426164,-0.05205477954912931
1782942169173001000,3.1570009765625,-0.10891980892419814,0.25853224171008915,-0.0322341537265107
1782942169182986000,3.166986083984375,-0.08208440896868706,0.20043807239886371,0.003910341844148933
1782942169192971000,3.176970947265625,-0.03318973741829395,0.15385397934578357,0.009544511806219815
1782942169202956000,3.1869560546875,0.04770458498299122,0.1252356049636379,-0.0025154168870300054
1782942169212941000,3.196941162109375,0.0731067372649908,0.09271247822791337,-0.006943170201405883
1782942169222925800,3.20692578125,0.14166414066255092,0.12324541752710938,-0.07293430330753325
1782942169232910800,3.216910888671875,0.20158990931510923,0.1296096918620169,-0.022476437561027705
1782942169242896000,3.226895751953125,0.08229308328330516,0.0965235244160518,0.06062945994250476
1782942169252881200,3.236881103515625,0.04604395829439163,0.052937736396119,0.08785243444349616
1782942169262866000,3.246865966796875,0.03886310687959194,0.015981887909956277,0.05258044739104807
1782942169272851000,3.256850830078125,-0.011713818669319151,0.031266112411953505,0.04949873839076608
1782942169282836000,3.2668359375,-0.013731588232517241,0.033390520687401296,0.03631243601609021
1782942169292821800,3.27682177734375,0.023891163197159764,0.0379332421509549,0.03675013331361115
1782942169302806800,3.286806884765625,0.01772737987041473,0.026443587626330554,0.06547671731058508
1782942169312792000,3.2967919921875,-0.0048573769032955166,-0.004576514135301113,0.0653162660518661
1782942169322777000,3.306777099609375,0.0058294368058443066,-0.049494719802774485,0.06365976754911244
1782942169332762000,3.31676220703125,0.00277238732278347,-0.09685827279575168,0.061340859614871436
1782942169342747000,3.326746826171875,-0.03269698546528816,-0.1211649214586243,0.08622107038199901
1782942169352732000,3.33673193359375,-0.08568740189671516,-0.11843714046254754,0.11907499997466801
1782942169362717000,3.346717041015625,-0.10823124213814735,-0.11140567092318088,0.11052468683756887
1782942169372702000,3.356701904296875,-0.16252981855869292,-0.1308922790184617,0.10149364097882062
1782942169382687000,3.36668701171875,-0.25977906343340873,-0.14298252978473902,0.11910126692708581
1782942169392672000,3.376672119140625,-0.2937210805237293,-0.13542192180473356,0.12710022979173807
1782942169402657000,3.386656982421875,-0.28194822514355183,-0.0976144614579156,0.08683781404085457
1782942169412642000,3.39664208984375,-0.2682470320492983,-0.08297693736162036,0.07942132723927497
1782942169422627000,3.406626953125,-0.2317518233448267,-0.09875774974152446,0.08958444586787373
1782942169432611800,3.41661181640625,-0.1840250265300274,-0.1319312666773796,0.08634082430414855
1782942169442596900,3.426596923828125,-0.16728022795617578,-0.1548214726710692,0.0907218523999676
1782942169452582000,3.436581787109375,-0.17789865260422227,-0.17517236944548784,0.07863291680794209
1782942169462567000,3.44656689453125,-0.18078911334872244,-0.1712484009347856,0.06661934800706804
1782942169472552000,3.456552001953125,-0.17409224605858326,-0.14668357625976203,0.040932570097409186
1782942169482538000,3.4665380859375,-0.1767822157949209,-0.13270838852971792,0.0458965857129544
1782942169492523000,3.47652294921875,-0.19300445179939268,-0.13103855562135577,0.04083583172466606
1782942169502508000,3.486508056640625,-0.1648445252418518,-0.15315310106743127,0.020766089979186653
1782942169512492800,3.496492919921875,-0.14797113185226918,-0.15302812298089266,-0.00640632337834686
1782942169522477800,3.506477783203125,-0.11040157191455363,-0.1479503082599491,0.0018757307440042494
1782942169532462800,3.516462890625,-0.09724223061203956,-0.1453465189697221,0.021153080002777276
1782942169542448000,3.5264482421875,-0.06917933468818664,-0.11965974106006323,-0.008376308277063071
1782942169552433000,3.536432861328125,-0.04552957903146743,-0.09122852328047155,-0.04094966736268252
1782942169562418000,3.54641796875,-0.04485387172698974,-0.061244851894490415,-0.04655800876375288
1782942169572403000,3.55640283203125,-0.0770195267945528,-0.0417508642103523,-0.028993454772233963
1782942169582388000,3.566387939453125,-0.11223170995116233,-0.03348557855971157,-0.02692234758660197
1782942169592373000,3.576373046875,-0.12395429644882679,-0.026498167357780038,0.0016046221850439905
1782942169602357800,3.586357666015625,-0.13279168289899826,-0.005058488965965807,-0.007064495026133954
1782942169612342800,3.5963427734375,-0.14562193837761878,0.01638360057864338,-0.00425225061699748
1782942169622328000,3.606328125,-0.12161153271496296,0.024826142492331563,0.002180010920204222
1782942169632313000,3.61631298828125,-0.10238368515372276,0.008217866312339901,-0.0006050166884437203
1782942169642297900,3.6262978515625,-0.07387713711559772,-0.0018774843096733091,0.018891236018016934
1782942169652283000,3.636282958984375,-0.07291969026029109,-0.019336239839158952,0.031169300973974166
1782942169662269000,3.64626904296875,-0.05054360780119896,-0.027052440239675343,0.019607932920008897
1782942169672254000,3.65625390625,-0.05610884071290493,-0.0002950739564374089,-0.0048695057325065134
1782942169682239000,3.666239013671875,-0.04546528162360191,0.04690806431043893,0.00006108253747224807
1782942169692224000,3.67622412109375,-0.03180734314918518,0.08629139567185193,-0.007943542882986366
1782942169702209000,3.686208984375,-0.018285013753175733,0.12711692519821227,-0.03190229142364114
1782942169712194000,3.696194091796875,-0.0013227730363607406,0.12101009622309357,-0.03731770406849682
1782942169722178800,3.7061787109375,-0.03598609013855457,0.0873247938401997,0.013835961922444403
1782942169732163800,3.716163818359375,-0.08098667685985565,0.04695416847448796,0.04461041835993528
1782942169742148900,3.72614892578125,-0.10324293233156204,0.04032145246174186,0.05467731007244438
1782942169752134000,3.7361337890625,-0.12684534171521664,0.06165967977307737,0.041448081871494645
1782942169762119200,3.746119140625,-0.12544950344264508,0.07713500640038401,0.031102921206876633
1782942169772104000,3.75610400390625,-0.12703589585125447,0.08465499010905624,0.03385042981673032
1782942169782089000,3.7660888671875,-0.12934008114039897,0.07722871256582438,0.022770050212740898
1782942169792074000,3.776073974609375,-0.07877484602928161,0.06026340310908854,0.005405073913931847
1782942169802059000,3.78605908203125,-0.03699029874503612,0.020010924230329692,-0.014042626943066716
1782942169812044000,3.7960439453125,-0.01763210280239582,-0.013861205961555241,0.01910001993048936
1782942169822028800,3.80602880859375,0.003829787421226501,-0.039726664906367656,0.05240815956406295
1782942169832015000,3.81601513671875,0.001045125138759613,-0.034823147306405004,0.04919493313860148
1782942169842003700,3.826003662109375,0.007369651985168457,-0.027742504863068458,0.032608978388272224
1782942169851988700,3.83598876953125,0.026976269730925557,-0.021595855334214865,0.006651420713216066
1782942169861973800,3.845973876953125,0.015122165808081626,-0.03267853649314493,0.014568587045930325
1782942169871958800,3.855958740234375,0.0030552959173917767,-0.07028510397300124,0.05676127673964947
1782942169881944000,3.865944091796875,-0.0038210195928812026,-0.11130155296158045,0.06997731666546314
1782942169891928800,3.8759287109375,-0.02796118911504745,-0.11511164930164813,0.047586803822219366
1782942169901913900,3.885913818359375,-0.028313071292638776,-0.11149985201265662,0.03339377209041267
1782942169911899000,3.89589892578125,-0.05046586638987064,-0.11669902809094637,0.059143276505358514
1782942169921884000,3.9058837890625,-0.09407412196993828,-0.11335402851197868,0.07271364629417658
1782942169931868700,3.91586865234375,-0.1039373443365097,-0.10515643780268728,0.05114873408749699
1782942169941853700,3.925853759765625,-0.16283669255077837,-0.09402078434750437,0.04974047472476959
1782942169951838700,3.935838623046875,-0.18372867393195627,-0.11581921304911375,0.07254764207750558
1782942169961824000,3.945823974609375,-0.16082476820647715,-0.15235289060045032,0.074203702188842
1782942169971809000,3.95580908203125,-0.14550094234645367,-0.1643862235477194,0.07574961645659059
1782942169981793800,3.965793701171875,-0.16049685142636297,-0.1598360128974542,0.09946052771601825
1782942169991778800,3.97577880859375,-0.1562140595406294,-0.15278211233057082,0.10713033169154078
1782942170001763800,3.985763916015625,-0.1534077699482441,-0.13887739602085203,0.08773892759904264
1782942170011749600,3.99574951171875,-0.172089674064517,-0.13540281524546444,0.06894961758553982
1782942170021734700,4.005734619140625,-0.20220424182116983,-0.1402793352406472,0.0719354649959132
1782942170031716900,4.015716796875,-0.2069680952221155,-0.12944522201530634,0.06919438612684607
1782942170041702000,4.025701904296875,-0.1832581338107586,-0.11386606968734413,0.0465595431337133
1782942170051686700,4.035686767578125,-0.16989596341252325,-0.07910842536520213,0.050779060524888335
1782942170061673000,4.0456728515625,-0.1773790126442909,-0.04644194463603198,0.04337006291002035
1782942170071658000,4.055657958984375,-0.19165537527799606,-0.025537103773280976,0.0434250810328871
1782942170081642800,4.065642822265625,-0.1817284400254488,-0.007138911969214678,0.02238156235180795
1782942170091627800,4.075627685546875,-0.17783669328391552,0.019427461786568165,0.004549114671722054
1782942170101612800,4.08561279296875,-0.17832827619314193,0.02763827730361372,-0.004038918393570929
1782942170111597800,4.095597900390625,-0.1290250238418579,0.020517047121562063,-0.0041665633612312375
1782942170121582800,4.105582763671875,-0.07765490208864212,0.010629092172533274,-0.03197447987701744
1782942170131567600,4.115567626953125,-0.04455635008513927,0.0033817879253998395,-0.045540575349517165
1782942170141553000,4.125552978515625,-0.002000233906507492,-0.007568499025516212,-0.06625323637472465
1782942170151538000,4.135537841796875,0.027541502398252486,-0.01647493212390691,-0.10534041606746614
1782942170161523000,4.14552294921875,0.007388941207528114,-0.022829452249780297,-0.13805510158622636
1782942170171507700,4.1555078125,0.11995149054825305,0.02853190167509019,-0.160292031302955
1782942170181492700,4.16549267578125,0.018799393016099928,0.008395122575387359,-0.06778554224222898
1782942170191477800,4.175477783203125,-0.06620002661645412,-0.013537965356558561,-0.04388575734719634
1782942170201462800,4.185462890625,-0.08980009791254996,-0.014400281274318694,-0.0425785472061485
1782942170211447800,4.19544775390625,-0.143241765242815,0.03082834204919636,-0.06272646875437349
1782942170221432800,4.205432861328125,-0.16056465596556663,0.07069200427345931,-0.05732676513530314
1782942170231419000,4.2154189453125,-0.16857962011694907,0.0601335296517238,-0.016018055201880634
1782942170241404000,4.22540380859375,-0.1418786601960659,0.03351169938165694,0.007362528124637902
1782942170251388700,4.235388671875,-0.10903729782402515,0.004367511027120054,0.03380125691276043
1782942170261373700,4.245373779296875,-0.060760465911030764,-0.012483560932800173,0.0210441945345141
1782942170271358700,4.255358642578125,-0.003931494230031967,-0.03990406729988753,-0.00245880959527567
1782942170281344000,4.265343994140625,0.023459786042571068,-0.07031407433915883,0.01429453761121258
1782942170291329000,4.2753291015625,0.0200467627286911,-0.06825845698360353,0.038970823304075745
1782942170301313800,4.285313720703125,0.03803659292757511,-0.04425590583384037,0.037263069538120176
1782942170311298800,4.295298828125,0.020252514433860776,-0.003995280181244016,0.03743301927754655
1782942170321283800,4.305283935546875,0.004957914668321609,0.007545410410873592,0.040145730568654836
1782942170331268900,4.315268798828125,-0.03974807302057743,0.01310611327793449,0.039513789340667425
1782942170341253600,4.325253662109375,-0.07493921338915824,0.021361315925978123,0.04192823007125407
1782942170351238700,4.33523876953125,-0.094007486474514,0.024925401615723965,0.04862889675367623
1782942170361224000,4.345223876953125,-0.1503606573373079,0.01570734528489411,0.06608589871749282
1782942170371209000,4.355208984375,-0.19115911619365214,-0.024521168196387586,0.07764189647659658
1782942170381194000,4.365194091796875,-0.21937574137449264,-0.04911236942168325,0.09499149254318326
1782942170391178800,4.3751787109375,-0.24067162738144396,-0.05673764013573527,0.07668598399125039
1782942170401163800,4.385163818359375,-0.2351326979547739,-0.06609134207759051,0.04928626468386501
1782942170411149800,4.39514990234375,-0.2434545360982418,-0.06935165904778987,0.02785612130537629
1782942170421134600,4.405134521484375,-0.25513679058551786,-0.06990238826572895,0.05767700334507972
1782942170431120000,4.415119873046875,-0.24084347681701182,-0.05531188164893537,0.06076276746597141
1782942170441105000,4.42510498046875,-0.21060849755108355,-0.02857610614299774,0.022670389230549336
1782942170451091700,4.435091796875,-0.1646311747521162,-0.03545088728331029,0.028626502889674155
1782942170461076700,4.44507666015625,-0.11000351250767708,-0.057410607493855056,0.0622330592142418
1782942170471061800,4.455061767578125,-0.059034372770786284,-0.07131400862932205,0.06559955823896452
1782942170481047000,4.465047119140625,-0.013108487898111343,-0.07043897936046123,0.042079383778665214
1782942170491031800,4.47503173828125,0.024469255346059798,-0.07795355624165386,0.020143683764524755
1782942170501016800,4.485016845703125,0.07450491362512111,-0.08028210878707467,-0.013037906879931687
1782942170511001900,4.495001953125,0.0853676684230566,-0.07737181083094329,-0.011564729054830967
1782942170520987000,4.50498681640625,0.06963526176214217,-0.07322108435966074,-0.010788100392837077
1782942170530972700,4.51497265625,0.03502513615190982,-0.09121069536283612,0.02088277516141534
1782942170540958000,4.5249580078125,-0.021330957320332525,-0.11116846463382243,0.048019240422733124
1782942170550943000,4.53494287109375,-0.0647889907747507,-0.09949541636630892,0.03839249369315803
1782942170560927700,4.544927734375,-0.10042086064815521,-0.08305464224033057,0.014827603308297693
1782942170570912800,4.554912841796875,-0.1290466511517763,-0.0920584347659722,0.01844908174108714
1782942170580897800,4.564897705078125,-0.13833528850078583,-0.0890833644779399,0.06115892717670649
1782942170590882800,4.5748828125,-0.13915303462445736,-0.0949275969941169,0.08265545032229274
1782942170600867800,4.584867919921875,-0.1393377435415983,-0.09945559581257403,0.0757132299689576
1782942170610852600,4.5948525390625,-0.1401274326145649,-0.09307283597290515,0.06085972503442317
1782942170620838000,4.604837890625,-0.14625789819359777,-0.0858673250408843,0.04149239593725651
1782942170630823000,4.614822998046875,-0.1497726283162832,-0.06629070057459176,0.04514982246626168
1782942170640808000,4.624807861328125,-0.216295895537734,-0.03522942655235529,0.06376457963045686
1782942170650793000,4.63479296875,-0.2559644735813141,-0.009810432733409107,0.0701578608641401
1782942170660777700,4.64477783203125,-0.24672961224615572,0.0018419015396386384,0.050105399047024546
1782942170670762800,4.6547626953125,-0.23824761510491368,0.00005786766707897186,0.04247004533037543
1782942170680747800,4.664747802734375,-0.2172556804805994,-0.01742054241094738,0.039289661728590726
1782942170690732800,4.67473291015625,-0.15402385601997376,-0.02479052318967879,0.04662482692226767
1782942170700717800,4.6847177734375,-0.115792617303133,-0.032826201335527,0.02492954806787893
1782942170710703900,4.694703857421875,-0.06448270130455494,-0.06359309552107006,0.02640820578569546
1782942170720689000,4.70468896484375,-0.05173427889049053,-0.06163038061335682,0.006051116732507944
1782942170730673700,4.714673583984375,0.009865560454130172,-0.028965945710800585,-0.014795984327327458
1782942170740658700,4.72465869140625,0.012592355069518089,0.00034884997028857467,-0.014875826364196836
1782942170750643700,4.734643798828125,-0.011933598899841307,0.009923281990736723,-0.016686401183810085
1782942170760629000,4.74462890625,-0.0017336919248104093,0.0005697627119719982,-0.025546583987679332
1782942170770614000,4.754614013671875,-0.004533551776409149,-0.00831628518551588,-0.026866744941845534
1782942170780598800,4.764598876953125,0.0021247370690107344,0.01408829271569848,-0.03940979924323037
1782942170790583800,4.774583740234375,-0.0017997428983449935,0.008742218980006874,-0.016964414407592266
1782942170800568800,4.78456884765625,-0.020474048230051993,-0.008322130404412745,-0.01349745068307966
1782942170810553900,4.794553955078125,-0.05359013589024544,-0.016132000437751412,-0.02762220295164734
1782942170820539000,4.804538818359375,-0.058227732563018796,-0.009511522852070629,-0.018516246959473938
1782942170830523600,4.814523681640625,-0.0684054277062416,0.009106083856336772,-0.011256357225403189
1782942170840509000,4.824509033203125,-0.07052607312202454,0.033054639796540136,-0.02328157993145287
1782942170850489900,4.83448974609375,-0.07134089663624762,0.0392563805134967,-0.02820036816578358
1782942170860475100,4.84447509765625,-0.07488543737530708,0.05069350113328546,-0.034869251470454034
1782942170870460200,4.854460205078125,-0.06844283710718155,0.03977273253779858,-0.02053998960573226
1782942170880446000,4.864446044921875,-0.0570814851373434,0.027719745041988788,0.005562511231657117
1782942170890431000,4.874430908203125,-0.06411328347027301,0.012363149423524736,0.051091524007543916
1782942170900416000,4.884416015625,-0.08337035712599754,0.005197349447384476,0.05533244951292872
1782942170910400800,4.89440087890625,-0.08506371704041957,0.022869747727550564,0.038321638680342586
1782942170920385800,4.9043857421875,-0.07669920879900455,0.026255006251670418,0.030790950914565473
1782942170930371000,4.91437109375,-0.07042027465999126,0.02993654430862516,0.0563145558854565
1782942170940356000,4.924356201171875,-0.06431085186898708,0.02952650220301002,0.07053812888599932
1782942170950340900,4.9343408203125,-0.035332010143995285,0.03673314564619213,0.06963285060934722
1782942170960326000,4.944325927734375,-0.010699673190712928,0.05455083414856344,0.06067076006727293
1782942170970311000,4.954310791015625,-0.006416881304979324,0.03518514901921153,0.055890667917579406
1782942170980296000,4.9642958984375,-0.03342413069605827,-0.0011325111612677573,0.0698912092845887
1782942170990281000,4.974281005859375,-0.04098609038293361,-0.04757054680716246,0.07279202702632173
1782942171000265700,4.984265625,-0.06668108813166618,-0.07175513999294489,0.10030961882602422
1782942171010251000,4.9942509765625,-0.09971768081486225,-0.08457976944837718,0.10703810509713366
1782942171020236000,5.004236083984375,-0.13828092796504496,-0.07575052977204322,0.1262116286552511
1782942171030221000,5.014220947265625,-0.18684300656020641,-0.049436304146423936,0.1254072717361152
1782942171040206800,5.024206787109375,-0.257048177164793,0.006393756157718598,0.08156206559501587
1782942171050192000,5.03419189453125,-0.2715314605474472,0.03081153704486787,0.06263038796875625
1782942171060177000,5.044177001953125,-0.27029695031642914,0.013177169220149516,0.055165166654624044
1782942171070162200,5.054162109375,-0.25397709915637967,-0.032463688166067005,0.07581979561597109
1782942171080147000,5.06414697265625,-0.18053192371726035,-0.0688941976038739,0.07535458925701677
1782942171090132000,5.074132080078125,-0.12822890502810477,-0.10181918313875794,0.09524144871626049
1782942171100117000,5.084116943359375,-0.08880874878764151,-0.12027732496913522,0.08589450530875474
1782942171110102000,5.09410205078125,-0.053292614248394966,-0.11749799644891172,0.05313448281092569
1782942171120086800,5.104086669921875,-0.05819207672774791,-0.1027174836853519,0.00800911893248558
1782942171130071800,5.11407177734375,-0.07881283995211123,-0.10447912306301295,-0.009646109017170966
1782942171140056800,5.124056884765625,-0.07685586066544055,-0.09813906985390931,-0.004964180012326687
1782942171150042000,5.1340419921875,-0.09946925901174544,-0.09211392781287431,-0.004796659692004323
1782942171160027100,5.144027099609375,-0.12447510545253752,-0.08458437255825847,-0.018485102902539075
1782942171170012000,5.154011962890625,-0.12956278398036955,-0.08386362053565681,-0.00891306376857683
1782942171179997000,5.163996826171875,-0.13670447242856024,-0.06241922943610698,-0.009154763569962233
1782942171189982000,5.17398193359375,-0.132872346919775,-0.05504431675393134,-0.03223808098295703
1782942171199967000,5.183967041015625,-0.11568974145054817,-0.05518978963922709,-0.03340666810460388
1782942171209952000,5.193951904296875,-0.1157277353733778,-0.08198222723584622,-0.011205960478726774
1782942171219938000,5.20393798828125,-0.11579553991258144,-0.09965703666880726,-0.006119889386091381
1782942171229923000,5.213923095703125,-0.05802899512052535,-0.09907112653963267,-0.003054346069321036
1782942171239908000,5.223908203125,-0.05720949543118477,-0.07784611381180584,-0.017276275102049113
1782942171249892900,5.233892822265625,-0.07441606629788876,-0.05689896817728877,-0.038907676673680544
1782942171259878000,5.2438779296875,-0.09762041627466678,-0.05000562846697867,-0.030585016546305268
1782942171269863000,5.25386279296875,-0.13861235187649726,-0.05297887212410569,-0.004989131790492683
1782942171279848000,5.263847900390625,-0.18672376409471034,-0.03860964357517659,0.00001961801592260599
1782942171289832700,5.273832763671875,-0.1961585319161415,-0.033974202326871455,-0.023997290452755986
1782942171299818000,5.28381787109375,-0.20193945340514183,-0.03411419531945139,-0.00047106984416022893
1782942171309803000,5.293802978515625,-0.19286533558964727,-0.0405977851850912,0.007273315471224486
1782942171319788000,5.3037880859375,-0.16060148084461687,-0.034961752059496934,-0.010757760053500532
1782942171329773000,5.31377294921875,-0.12179098093509673,-0.05346588845606893,-0.011070406199246645
1782942171339757800,5.3237578125,-0.10562135190069674,-0.04989372905772179,0.0018273067587055265
1782942171349742800,5.333742919921875,-0.07872107001543045,-0.04919135294202715,0.0007307619599625468
1782942171359727900,5.343727783203125,-0.061136898007988924,-0.04094911937341094,-0.0024586451984941957
1782942171369714000,5.3537138671875,-0.07141513091623783,-0.023046784794889388,0.006859802766889333
1782942171379699000,5.363698974609375,-0.05640402426719665,-0.01821834172513336,0.0034898879423737525
1782942171389684000,5.37368408203125,-0.032115970706939695,-0.00913706351649016,0.0007916253017261624
1782942171399669000,5.3836689453125,-0.07009294240176678,-0.0021190379805862904,0.027726430511102077
1782942171409654000,5.393654052734375,-0.07350187406241894,-0.0074350453715771436,0.03519110383596271
1782942171419638800,5.403638671875,-0.0535784454524517,-0.019047011101618407,0.019340660285949707
1782942171429623800,5.413623779296875,-0.06925590705573559,-0.03292666603531688,0.025253610656782985
1782942171439609000,5.423609130859375,-0.09193886350691317,-0.01992646081726998,0.04713599131479859
1782942171449594000,5.433593994140625,-0.07477262465059757,-0.018117767427489162,0.06010086949113756
1782942171459579000,5.443578857421875,-0.06609715076386928,-0.022508147873543202,0.045163449132815
1782942171469564000,5.45356396484375,-0.04872574472427368,-0.01192220072299242,0.06903207170460372
1782942171479549000,5.463548828125,-0.04151216008365154,-0.011227642587572336,0.06499196600094437
1782942171489534000,5.473533935546875,-0.040458267116546626,-0.00445504318010062,0.0596697480648756
1782942171499519000,5.48351904296875,-0.038725159713625903,-0.010835537997446954,0.04729158373530954
1782942171509503700,5.493503662109375,-0.08255027291476726,-0.026035481749475002,0.07092424212675541
1782942171519489000,5.503489013671875,-0.10827917293310164,-0.012654387455061077,0.08884206653535366
1782942171529474000,5.51347412109375,-0.1391284847050905,0.024409159189276396,0.08011771200560033
1782942171539459000,5.523458984375,-0.16516425871551035,0.04435885475166142,0.0786295558070764
1782942171549444900,5.53344482421875,-0.188298466065526,0.06811334942448884,0.08074844765719026
1782942171559430000,5.543429931640625,-0.1893780779957771,0.0561302488271147,0.07352631438393145
1782942171569415000,5.553414794921875,-0.16824176646471023,0.014444704937934875,0.0744879624903202
1782942171579400000,5.56339990234375,-0.13690788604617118,-0.01853957303613424,0.09973178240545093
1782942171589385000,5.573385009765625,-0.09375964919328689,-0.04610051078721881,0.11886796962786465
1782942171599370000,5.583369873046875,-0.08611527191996574,-0.04986103236451745,0.11700129897315055
1782942171609355000,5.59335498046875,-0.09886486337780952,-0.05544449505265802,0.10086710657831281
1782942171619340000,5.603340087890625,-0.11885434296131134,-0.05185669969376176,0.07945296448655426
1782942171629324800,5.61332470703125,-0.13800269554555417,-0.036949784071557225,0.05331475301496684
1782942171639309800,5.623309814453125,-0.15344868648052215,-0.0063758551748469465,0.0530444116409868
1782942171649294800,5.633294921875,-0.17009586989879608,0.02416724019218236,0.059220250731706614
1782942171659280100,5.643280029296875,-0.17768647115826605,0.04741561197377741,0.07881886783409864
1782942171669265200,5.65326513671875,-0.1790308715045452,0.046903716928884384,0.03714088619686663
1782942171679250000,5.66325,-0.12039397361874579,0.009928140828944743,0.005335844602622091
1782942171689235000,5.67323486328125,-0.06005494799017906,-0.03375522581394762,0.0000313815189525485
1782942171699220000,5.683219970703125,0.01686228747367859,-0.07808003216553479,0.01733417930174619
1782942171709205800,5.693205810546875,0.07907645932435989,-0.10533226929362863,0.04850212856885045
1782942171719190800,5.703190673828125,0.1023772554129362,-0.09426164389867335,0.005163191449455916
1782942171729176000,5.713176025390625,0.1795364829391241,-0.05307856963891536,0.038973398853652176
1782942171739161000,5.7231611328125,-0.013888824620842934,-0.04252659782320261,0.11183978802412747
1782942171749146000,5.73314599609375,-0.040237902364134784,-0.018030856329016385,0.0702558048132807
1782942171759131000,5.743130859375,-0.05538929426670074,-0.015208894243463873,0.03873962663039565
1782942171769116000,5.753115966796875,-0.12279752762913704,-0.006562719516456127,0.0566676436394453
1782942171779101000,5.763100830078125,-0.1456903274387121,-0.02192632939759642,0.08860621195286512
1782942171789086000,5.7730859375,-0.16166121903061867,-0.04587302217427641,0.1019688207425177
1782942171799070700,5.78307080078125,-0.16387012725174427,-0.06634444005582481,0.08978245265800505
1782942171809056000,5.793055908203125,-0.17447101624310016,-0.07605378703493625,0.0843354758311063
1782942171819041000,5.803041015625,-0.20228607488572597,-0.07817004853654652,0.08702716260049492
1782942171829026000,5.813026123046875,-0.2075128696233034,-0.05533175539318472,0.0561558947250247
1782942171839011000,5.823010986328125,-0.22053367923796174,-0.027422880987264215,0.04214815643224865
1782942171848995800,5.832995849609375,-0.20438567751348016,-0.016133717470802365,0.028154264001734552
1782942171858980900,5.84298095703125,-0.2234299852013588,0.0038368016839027404,0.01635572619102895
1782942171868967000,5.852966796875,-0.23800445399880407,-0.00448616897072643,0.02623104085419327
1782942171878951700,5.86295166015625,-0.2196738475382328,-0.016412936270982025,0.022147278671897946
1782942171888936700,5.872936767578125,-0.20374679508805274,-0.004379311062768102,0.0008885463375598192
1782942171898921700,5.882921630859375,-0.1833148324340582,0.01984543147031218,-0.008446816230006515
1782942171908907000,5.892906982421875,-0.14551847800314427,0.008484956283308566,-0.022573723923042414
1782942171918892000,5.90289208984375,-0.11953414191901683,-0.01667366956640035,-0.024023119013756512
1782942171928876800,5.912876708984375,-0.09457914888262749,-0.025356997966021297,-0.0287412335768342
1782942171938861800,5.92286181640625,-0.04449263719916344,-0.017781411612592637,-0.04370163295194506
1782942171948846800,5.932846923828125,0.0016875146955251693,-0.01615406613908708,-0.06388579485733062
1782942171958831900,5.942831787109375,0.015547113221883773,-0.028406302534043786,-0.043087117782793935
1782942171968816600,5.952816650390625,0.026555413970351216,-0.024998649515025315,-0.043226307057775554
1782942171978801700,5.9628017578125,0.03966565543413162,-0.0020823957646265625,-0.07140899343639612
1782942171988787000,5.972786865234375,0.03753098149299621,0.016020612485148012,-0.07176628244146704
1782942171998772000,5.98277197265625,0.012974047863483428,0.005354914629273116,-0.0391970150090754
1782942172008757000,5.992757080078125,-0.018010872986912726,0.020598222598992286,-0.02923062452897429
1782942172018741800,6.00274169921875,-0.014288637593388557,0.00963054612185806,-0.0005521357237361371
1782942172028727800,6.012727783203125,-0.029008067819476124,0.01584331968948245,0.0030761195097118612
1782942172038712800,6.022712890625,-0.04288461748063564,0.015593911505676804,0.008747187416069209
1782942172048697600,6.032697509765625,-0.06774433344900607,0.014633176714740693,0.0417535676240921
1782942172058683000,6.042682861328125,-0.08444295479357242,0.0033954511245712637,0.06153090229425579
1782942172068668000,6.05266796875,-0.09759820444285869,0.008461575407721102,0.06671886285878717
1782942172078653000,6.06265283203125,-0.1449813023865223,0.02184533658325672,0.09560962444152682
1782942172088638000,6.072637939453125,-0.19732523760795592,0.03899714505542069,0.09976199488062411
1782942172098622700,6.082622802734375,-0.19520517671406268,0.07052326011043042,0.06533526301328092
1782942172108607700,6.092607666015625,-0.17633681011497973,0.09328461556006222,0.027578509940393268
1782942172118592800,6.1025927734375,-0.13181962299644948,0.09023892772123217,0.014768639662675559
1782942172128577800,6.112577880859375,-0.10110592030286789,0.0655707522695884,0.05794431251175701
1782942172138562800,6.122562744140625,-0.060004094585776324,0.02554543321020901,0.09025242652362211
1782942172148547800,6.1325478515625,-0.043238253223896024,-0.01254997723251581,0.10700679664341732
1782942172158532900,6.142532958984375,-0.03567804710268974,0.014598982184194028,0.08246706987703219
1782942172168518000,6.152517822265625,-0.061978609529137606,0.04326685826387256,0.04662515571583062
1782942172178503000,6.1625029296875,-0.08693535613119602,0.043472500371187925,0.02897657670266926
1782942172188488700,6.17248876953125,-0.07042611987888812,0.03559007655829191,0.029144407550245523
1782942172198474000,6.182473876953125,-0.061084291037917134,0.0117877241557464,0.05438671136172488
1782942172208459000,6.192458984375,-0.06338964537084102,-0.012207410872541367,0.07041037432048469
1782942172218443800,6.20244384765625,-0.03726385498940944,-0.03842394827734679,0.06526983309425413
1782942172228428800,6.2124287109375,-0.05573182409405708,-0.06560260871257632,0.051365737839043135
1782942172238413800,6.222413818359375,-0.07767769844233989,-0.08420147418789566,0.047241534048505125
1782942172248398800,6.23239892578125,-0.10892799223065376,-0.09643043930511921,0.05907037566592917
1782942172258384000,6.2423837890625,-0.1261100131779909,-0.08312898611817508,0.056426309164240955
1782942172268368600,6.25236865234375,-0.15506898115873335,-0.06397175610773265,0.03568034865763038
1782942172278354000,6.26235400390625,-0.1948947955906391,-0.07153426378387957,0.03283007379304617
1782942172288339000,6.2723388671875,-0.228230078959465,-0.07627097344957291,0.047738450719974936
1782942172298324000,6.282323974609375,-0.24985797339975832,-0.07220631782654673,0.04528776963222771
1782942172308308700,6.292308837890625,-0.1990641902297735,-0.0608592501103878,0.018007073594629764
1782942172318293800,6.302293701171875,-0.1399479843944311,-0.07474935337286442,0.020568375450000165
1782942172328278800,6.31227880859375,-0.10754325987398623,-0.06922817879859358,0.020525705352053045
1782942172338263800,6.322263916015625,-0.06713526163995266,-0.07593542135227471,-0.0024304237510077652
1782942172348248800,6.332248779296875,-0.021700375154614447,-0.07511745603289455,-0.02085667260577902
1782942172358235000,6.34223486328125,-0.039031449183821676,-0.06497841239962726,-0.012395937448274344
1782942172368220000,6.352219970703125,-0.05623860457241535,-0.039133375188335776,-0.021302955068554726
1782942172378205000,6.362204833984375,-0.07013152084648609,-0.0348696898618713,-0.02042688462007791
1782942172388189700,6.372189697265625,-0.11460896047651767,-0.05258315080478787,-0.024547343817260116
1782942172398174700,6.3821748046875,-0.15417700075507162,-0.0468653576798737,-0.01684533633887768
1782942172408159700,6.39215966796875,-0.18182897779047488,0.00931797304134816,-0.01970032391119748
1782942172418145000,6.40214501953125,-0.16033669242858886,0.029557591461017725,-0.019754337387066334
1782942172428129800,6.4121298828125,-0.1374988376766443,0.037397272110730406,0.0009334266589023173
1782942172438114800,6.42211474609375,-0.12115560564100741,0.04106193209812045,0.018290457113273442
1782942172448099800,6.432099853515625,-0.09127250855267047,0.041626214917376635,0.026256851148884743
1782942172458084900,6.4420849609375,-0.08496434831917285,0.04954327165223658,0.013473284356202929
1782942172468070000,6.45206982421875,-0.07886661596596241,0.0654607160238549,0.004999287858325987
1782942172478054700,6.4620546875,-0.07053893260359764,0.09815960118528455,0.0021163893657736477
1782942172488039700,6.472039794921875,-0.08091244257986545,0.1197681698706001,0.004937858260981739
1782942172498025000,6.48202490234375,-0.099192195636034,0.11799213664140551,0.009409706445410847
1782942172508010000,6.492010009765625,-0.09508183770775794,0.09780435800682753,0.004440137871913612
1782942172517995800,6.501995849609375,-0.09264555047154426,0.0881578105982393,0.009729001527652143
1782942172527980800,6.511980712890625,-0.0896376008272171,0.0691008260918781,0.00020823592320084571
1782942172537965800,6.5219658203125,-0.04586275650858879,0.05492514735367149,0.015997268142178653
1782942172547950800,6.531950927734375,-0.018103811967372894,0.03849332371912896,0.0037180341424420476
1782942172557935600,6.541935546875,0.03636310675740242,0.02294328788779676,-0.0039629853468388316
1782942172567921000,6.5519208984375,0.044946226185560226,0.01017035208698362,-0.003641644437983632
1782942172577906000,6.561906005859375,0.01227554420530796,-0.005474668551422655,0.000011361644230782985
1782942172587891000,6.571890869140625,-0.00895545987188816,0.005498268622718751,-0.01157999968919903
1782942172597875700,6.581875732421875,-0.05627601397335529,0.038117622274532914,-0.030096922502107916
1782942172607860700,6.59186083984375,-0.10120295093655586,0.031294388658367096,-0.02437098260335624
1782942172617845800,6.601845703125,-0.14041677094995975,-0.004338613726198673,-0.010797434476763009
1782942172627830800,6.611830810546875,-0.17285189060866832,-0.04802705840300768,0.009105024410411715
1782942172637815800,6.62181591796875,-0.18290157545804978,-0.10087930847276001,0.013655235060676932
1782942172647800800,6.63180078125,-0.18239070332646368,-0.14277728953622282,0.010925042911805212
1782942172657785900,6.641785888671875,-0.21776538356840608,-0.16017949257288128,0.019769114831089972
1782942172667771000,6.65177099609375,-0.22605448848605156,-0.16465028131138532,0.023468882664479315
1782942172677756700,6.661756591796875,-0.23136954602897167,-0.16768358459267765,0.006660188541561364
1782942172687741700,6.67174169921875,-0.23326865764856336,-0.11128873001262544,-0.03464885018542409
1782942172697726700,6.681726806640625,-0.22377368407249448,-0.023069763811677694,-0.07656710685193538
1782942172707712000,6.6917119140625,-0.1923638158082962,0.03913315599262714,-0.11524382431395351
1782942172717697000,6.701697021484375,-0.1266197162657976,0.06751198599785566,-0.14924283228851853
1782942172727681800,6.711681884765625,-0.04800853636562824,0.04852788406461477,-0.12406612279284744
1782942172737666800,6.721666748046875,0.0286082548469305,-0.02155592518262565,-0.07202168197464197
1782942172747651800,6.73165185546875,0.07996668616235256,-0.08701233035754412,-0.022702245673537253
1782942172757636900,6.741636962890625,0.08616904793381691,-0.11157408629264681,0.0013123977728188036
1782942172767621600,6.75162158203125,0.03872340614795684,-0.10578417777959256,-0.000008475567400455475
1782942172777606700,6.761606689453125,-0.015624270111322402,-0.0893446457626298,-0.020796485117450355
1782942172787592000,6.771592041015625,-0.08665478562414645,-0.04843640638887882,-0.007712437540851533
1782942172797577000,6.781576904296875,-0.12720657624304293,-0.016682400862127543,-0.011087576529756189
1782942172807562000,6.79156201171875,-0.16553543011546135,0.024772403011098502,-0.012820501269586384
1782942172817546800,6.801546630859375,-0.14394085342288016,0.04218319121301174,-0.0012078779524192214
1782942172827531800,6.81153173828125,-0.14821487748026846,0.021916940514743327,0.021988361783139405
1782942172837517800,6.821517822265625,-0.09850713598132133,-0.005661021436378359,0.03448942184001207
1782942172847502600,6.831502685546875,-0.023435820645093915,-0.03973477514758706,0.039210824338719245
1782942172857487600,6.841487548828125,0.01681727928817272,-0.05970467324778437,0.04993994281962514
1782942172867472600,6.85147265625,0.02821837874650955,-0.06356182359997183,0.036223004166968165
1782942172877457700,6.861457763671875,0.022594109123945234,-0.07859349811300635,0.03375599299892783
1782942172887442700,6.871442626953125,-0.025575755283236502,-0.07610255808010696,0.06025269905198365
1782942172897427700,6.881427734375,-0.07237783846855163,-0.03430832965206355,0.05276387766655534
1782942172907412700,6.891412841796875,-0.1483697757810354,0.019288199446350334,0.047579826092161236
1782942172917397800,6.901397705078125,-0.19398294144272804,0.05685063552353531,0.03810052500925958
1782942172927382800,6.9113828125,-0.18095394852161406,0.0716606301099062,0.03973718630038202
1782942172937367600,6.921367431640625,-0.1667962438315153,0.04581248762607574,0.07520027547813951
1782942172947352600,6.9313525390625,-0.15003800125420091,0.009270297974720596,0.1021625532163307
1782942172957337600,6.941337646484375,-0.12400514985322951,-0.042489371085353195,0.11407120033800601
1782942172967322600,6.951322509765625,-0.14583353530168533,-0.06959204367492347,0.12632288874369113
1782942172977308000,6.961307861328125,-0.25661153931319713,-0.10238982263356447,0.1650903532290831
1782942172987292700,6.971292724609375,-0.2142144130885601,-0.037414734702184795,0.11549436500892042
1782942172997278700,6.98127880859375,-0.18632687373161314,0.07242547700256109,0.041678821887448425
1782942173007263700,6.991263671875,-0.11825988419950008,0.05578114312849938,0.13981328863147646
1782942173017248500,7.00124853515625,-0.071703884729743,0.0700445366827771,0.1816677593467757
1782942173027233500,7.011233642578125,-0.05399404051601887,0.04988832223024219,0.2575785577144474
1782942173037218800,7.02121875,-0.0687538027524948,0.05140369522925466,0.13455492971185595
1782942173047203800,7.031203857421875,-0.06956921078860759,-0.027604703827574847,0.036568091277591884
1782942173057188900,7.04118896484375,-0.08266425468325614,-0.10535038947220891,-0.04458371301610022
1782942173067173600,7.051173583984375,-0.013747954845428467,-0.19375680453665553,0.05797211383413523
1782942173077158700,7.06115869140625,-0.005904255607724189,-0.17872220741417258,0.2253749452566728
1782942173087143700,7.071143798828125,0.05153612596988678,-0.04000252270568162,0.2003015134723857
1782942173097128700,7.081128662109375,0.009905892464518546,-0.013428367502242326,0.19126714314538984
1782942173107113500,7.091113525390625,-0.09534487255811691,-0.02740428588464856,0.10858878687154501
1782942173117098800,7.1010986328125,-0.09907646030187606,-0.06053600950539112,-0.007973755358159541
1782942173127083800,7.111083740234375,-0.06540858397781849,-0.13090543076097966,-0.014894640662521124
1782942173137068800,7.12106884765625,-0.14990999096035956,-0.14930026156418025,0.05699957900755107
1782942173147053800,7.1310537109375,-0.18650924456119536,-0.18399718867503106,0.003389605905674398
1782942173157039600,7.14103955078125,-0.1653811163365841,-0.3075195599799976,-0.04355272600054741
1782942173167024600,7.151024658203125,-0.06969722108244895,-0.3631734234670177,-0.06589907090850174
1782942173177009700,7.161009765625,0.01980360162258148,-0.2649735998691991,0.11540259507223963
1782942173186994700,7.17099462890625,-0.09600947394669056,-0.11294226937331259,0.36056963417679067
1782942173196979700,7.180979736328125,-0.1873223145097494,0.05140859060008079,0.3301880129817873
1782942173206964700,7.19096484375,-0.13382102594673634,0.14966281126625836,0.09931034212298691
1782942173216949800,7.20094970703125,-0.17643500979244708,0.09770444129630923,-0.1193797002759762
1782942173226934800,7.210934814453125,-0.12364099271595477,-0.05656853064652532,-0.11558787024496123
1782942173236919600,7.22091943359375,-0.03129471745193004,-0.1574037442492321,-0.06163354068482294
1782942173246904600,7.230904541015625,0.08268237486183642,-0.16448511734493076,0.058609900281019506
1782942173256889600,7.2408896484375,0.13374620714485644,-0.11387001521009951,0.1053523622335866
1782942173266875000,7.250875,0.1314209790676832,-0.011978314824402331,0.06574830079358071
1782942173276859600,7.260859619140625,0.06652852791845798,0.01214647446554154,0.06046486223163083
1782942173286844700,7.2708447265625,-0.04242752136290073,0.03058313511647284,0.009754994485434144
1782942173296829700,7.28082958984375,-0.06941314344406127,0.05550934044979512,-0.05104686288191005
1782942173306814700,7.290814697265625,-0.13405951087772847,0.050741103134676814,-0.013876732324250041
1782942173316800500,7.300800537109375,-0.1529191096484661,0.003675473642349243,0.006366977748647332
1782942173326785800,7.310785888671875,-0.05990823299586773,0.0005406096827238798,0.01614157198369503
1782942173336770800,7.320770751953125,-0.03982698347568512,0.022518230876140296,0.010003398022241889
1782942173346755800,7.330755859375,-0.014489713123440742,0.06055014762859791,0.003561108281370252
1782942173356740600,7.34074072265625,-0.07484744345247744,0.07721453790999948,0.009916231195442379
1782942173366725600,7.3507255859375,-0.17136135978996753,0.06529142387155443,-0.044075562564563006
1782942173376710700,7.360710693359375,-0.13480769889652727,0.025955292652733622,-0.10165074950298293
1782942173386695700,7.37069580078125,-0.11503799954354763,-0.03186815169202164,-0.04324084703978151
1782942173396680700,7.3806806640625,-0.09638415247797966,-0.036766737388540055,0.035780137503985315
1782942173406665700,7.390665771484375,-0.08897709109187125,0.022595753091759978,0.027539219109620896
1782942173416650800,7.400650634765625,-0.049994741746783256,0.04232104704743251,-0.02554899514047429
1782942173426635800,7.4106357421875,-0.11452420480251312,0.019720873508881777,-0.09086615624148398
1782942173436620800,7.420620849609375,-0.07233341480493545,0.007516494843643158,-0.11235486140679568
1782942173446605600,7.43060546875,-0.108534024477005,0.015859156579431145,-0.09186188928056507
1782942173456590600,7.440590576171875,-0.09953706355094909,0.004244304772559553,-0.08460859368406236
1782942173466575600,7.45057568359375,-0.08697042744457721,-0.06326364437099546,-0.06641202539931983
1782942173476561700,7.460561767578125,-0.08194003206193447,-0.09781999396737664,-0.04281440178863704
1782942173486546700,7.470546630859375,-0.10807342122793197,-0.08339337267540395,-0.009068784053251146
1782942173496531700,7.48053173828125,-0.12106208213865756,-0.034010351352486756,0.00182584545398131
1782942173506516700,7.490516845703125,-0.110372930341959,-0.01591837595338002,-0.011767156291753053
1782942173516501800,7.500501708984375,-0.1320966863721609,-0.0012793540197424589,-0.007545191215164959
1782942173526486500,7.510486572265625,-0.12921791606545446,0.00470786716369912,-0.004302044575475156
1782942173536471600,7.520471435546875,-0.11536357823610305,-0.010853420714009552,0.015819536955095827
1782942173546456800,7.530456787109375,-0.09970949750840663,-0.04538896498437971,0.02975145179899409
1782942173556441900,7.54044189453125,-0.07509352716803551,-0.06579073342951014,0.035687983974814416
1782942173566427000,7.550427001953125,-0.03958089976012707,-0.050718251982051876,0.03289433466829359
1782942173576411600,7.56041162109375,-0.01831131723821163,-0.028506073114089665,0.04048785853721201
1782942173586396700,7.570396728515625,-0.0060369420766830445,-0.03804623753875494,0.07631528751533478
1782942173596381700,7.580381591796875,-0.008005027279257775,-0.058747756115440274,0.08752599723441526
1782942173606366700,7.59036669921875,-0.037545594540238376,-0.07241183206969871,0.08152261036746203
1782942173616351500,7.6003515625,-0.12100596803724765,-0.09153216413585469,0.07045035927100107
1782942173626336800,7.610336669921875,-0.14983692572414875,-0.12231749816038645,0.05671572056487202
1782942173636322800,7.62032275390625,-0.17551380329430102,-0.12469414589754305,0.05367859962498769
1782942173646307600,7.6303076171875,-0.2883879028022289,-0.11774397056661545,0.09474886116003617
1782942173656292600,7.640292724609375,-0.26634908947348596,-0.09935901270345784,0.05529195310575887
1782942173666277600,7.650277587890625,-0.13324936353862285,-0.0922240645233076,0.008635342805739491
1782942173676262700,7.6602626953125,-0.19807810180187224,-0.12214741142364217,0.09198865746539085
1782942173686247700,7.67024755859375,-0.06654314096570015,-0.08206358537636697,0.005128960386291146
1782942173696232700,7.680232666015625,0.13195523207485674,-0.07577773743937723,-0.0932382374013774
1782942173706217700,7.6902177734375,0.2229068381100893,-0.13189476145873777,-0.0321105638794601
1782942173716202800,7.70020263671875,0.5238730674564838,-0.14625808085668832,0.07153808144247159
1782942173726187800,7.710187744140625,0.6461363420784473,0.0011803414915222674,0.225725055602286
1782942173736172800,7.7201728515625,-0.6946376303970814,-0.06798648077496328,0.5694371332794428
1782942173746157600,7.730157470703125,-0.21538404138982295,-0.1844559287605807,0.12044146602228283
1782942173756142600,7.740142578125,-0.24361177248656748,-0.09663973467424511,-0.1458973943181336
1782942173766127600,7.750127685546875,-0.3792845637798309,0.004174123329890426,-0.003598316752910614
1782942173776113000,7.76011279296875,-0.17697686158418655,-0.017972413273202256,0.08482479371801019
