time,seconds_elapsed,z,y,x
1782942140029956000,0.0799560546875,-0.012130582776665687,-0.20718142744554205,0.34283622642438855
1782942140039941400,0.08994140625,0.0460538951665163,-0.19804498498355969,0.22231307346802204
1782942140049926400,0.099926513671875,0.12704933985471725,-0.17700093657951801,0.11830600662985816
1782942140059911200,0.1099111328125,0.1395253750681877,-0.15981266855448484,0.06251980373375117
1782942140069896200,0.119896240234375,0.16784487610161303,-0.15908121247477827,-0.01973578795022331
1782942140079881200,0.129881103515625,0.1932908675253391,-0.1482764075423125,-0.0609625643543899
1782942140089866200,0.1398662109375,0.10525661024153232,-0.11649153195326216,0.02656326848324388
1782942140099851000,0.14985107421875,0.0012625672817230223,-0.11093587972065433,0.1815806655852124
1782942140109836000,0.1598359375,-0.08818915558457374,-0.08596590831084176,0.24952481418894604
1782942140119821300,0.1698212890625,-0.18042495621144772,-0.0419220880248351,0.3204969323117286
1782942140129806300,0.179806396484375,-0.35689211470782756,-0.015231304721382911,0.3696159141372889
1782942140139791400,0.189791259765625,-0.48147243410050866,0.03935013691128697,0.29537925952691585
1782942140149776100,0.199776123046875,-0.45208968774974345,0.0763347183015896,0.07466463423147797
1782942140159761200,0.20976123046875,-0.26069150210320946,0.022094251576717943,-0.05456615958185866
1782942140169746200,0.21974609375,-0.10455869110524654,-0.03523291541738435,-0.042496330549102276
1782942140179731200,0.229731201171875,-0.12620879737734794,-0.025121033785678443,-0.11107309623425826
1782942140189716200,0.23971630859375,-0.18816402603089807,0.028219593456061554,-0.19810687123863024
1782942140199701200,0.249701171875,-0.21383622742593286,0.0074206983274605585,-0.16388411924447863
1782942140209686300,0.259686279296875,-0.2288105091959238,-0.11627641876470297,-0.06893004523538984
1782942140219671300,0.26967138671875,-0.21254151144027708,-0.2792250472573563,0.03217149115330539
1782942140229656300,0.27965625,-0.13343173436820507,-0.33283458196781573,0.06831827001259662
1782942140239641000,0.28964111328125,-0.10146890839636326,-0.18400297909500077,0.05903880235073156
1782942140249626000,0.299626220703125,-0.09661620766818522,-0.05897848699823953,0.0783092926104553
1782942140259611100,0.309611083984375,-0.09656769235134124,-0.04305423842649907,0.05372387267197482
1782942140269596200,0.31959619140625,-0.06152502054274082,0.016245434216968713,0.03081001180806197
1782942140279581200,0.329581298828125,-0.1163245322227478,0.09341414195755496,-0.012160685653984546
1782942140289566200,0.339566162109375,-0.08889759611487388,0.12428878910019993,-0.0258812227695249
1782942140299551200,0.34955126953125,-0.028039515048265455,0.08139834466697647,0.007260364658106118
1782942140309536300,0.359536376953125,-0.09308101927936077,0.012858686988661066,0.05236333404164761
1782942140319521300,0.369521240234375,-0.19430968917906283,-0.010809161447174847,0.14075681655928493
1782942140329506000,0.379506103515625,-0.23393676616847514,0.009014615313755348,0.18177257142812012
1782942140339491000,0.389490966796875,-0.16994447872936724,0.036951345840981226,0.14661062062140554
1782942140349476000,0.39947607421875,-0.11109949105083941,-0.016098363029630854,0.11447578081721439
1782942140359461400,0.40946142578125,-0.07241817047894,-0.11935129616539925,0.06987239498626441
1782942140369446400,0.4194462890625,-0.010455927562713623,-0.2077442672263831,0.031892190154734996
1782942140379431200,0.42943115234375,-0.07585515919029712,-0.2027338186532259,-0.001962733174022287
1782942140389416200,0.439416259765625,-0.18055004389584065,-0.17870043397378174,-0.03775684440443292
1782942140399401200,0.449401123046875,-0.11154606577455997,-0.14482861430915073,-0.0734820733834058
1782942140409387000,0.459386962890625,-0.05400806904137134,-0.06160705453669652,-0.048047516669146716
1782942140419372300,0.469372314453125,-0.07463526200652122,-0.011099175636004656,0.042650589529052374
1782942140429357300,0.479357421875,-0.1778238338023424,-0.05389737520851195,0.14946509673707187
1782942140439342300,0.48934228515625,-0.2809492772340774,-0.1134305917463731,0.21678364252205937
1782942140449327000,0.4993271484375,-0.23128245226740834,-0.11793003119062631,0.19097685496192424
1782942140459312000,0.50931201171875,-0.0890624312877655,-0.048571851070504636,0.1362141681609675
1782942140469297200,0.519297119140625,0.025860417443513868,0.005193312593083828,0.0911403700729832
1782942140479282200,0.5292822265625,0.10146598578691482,-0.03487266727024689,0.07041578114796429
1782942140489267200,0.53926708984375,0.09877601605057716,-0.10098731715818866,0.09010028643552213
1782942140499252200,0.549252197265625,0.004410802179574966,-0.1502609050235711,0.14890256748348474
1782942140509237200,0.5592373046875,-0.11709142494201659,-0.15832948079202322,0.24439243800286203
1782942140519222300,0.56922216796875,-0.10923252813518047,-0.0911633490897715,0.22105971240606156
1782942140529207300,0.579207275390625,-0.054418987929821014,-0.006361315192840993,0.14202957644145936
1782942140539192300,0.5891923828125,-0.050368251234292984,0.014154544618632643,0.08062036429811269
1782942140549177000,0.599177001953125,-0.005054360780119896,-0.0265087252844125,0.0331400895902887
1782942140559162000,0.609162109375,0.059497314107418056,-0.08328877978976816,-0.003965871423669159
1782942140569147100,0.619147216796875,0.0703267511576414,-0.14401587315415962,0.007712547138705849
1782942140579132400,0.62913232421875,0.009022679889202117,-0.21289107379661873,0.036388716122694315
1782942140589117200,0.6391171875,-0.012640870386362075,-0.24535881708329543,0.07090677953530103
1782942140599102200,0.649102294921875,-0.08368424538075923,-0.2089648037309758,0.042858533191308376
1782942140609087200,0.659087158203125,-0.0991886885046959,-0.13652990131294354,0.003986731548607349
1782942140619072300,0.669072265625,-0.07725392007231711,-0.09935458312351256,-0.01091240262594074
1782942140629057300,0.679057373046875,-0.11752163305282592,-0.12164446687018499,0.008305836856737732
1782942140639042000,0.6890419921875,-0.14033026171028612,-0.1606208979311399,0.01130428802035749
1782942140649027000,0.699027099609375,-0.09030980100035667,-0.1732500596133992,0.02193275913838297
1782942140659012400,0.709012451171875,-0.009582651859521864,-0.1611711522250436,-0.013944865657016635
1782942140668997400,0.718997314453125,0.05932078849673271,-0.1496383618115913,-0.06332666313722729
1782942140678982100,0.728982177734375,0.08914660243988036,-0.1676940329214558,-0.08178341672811656
1782942140688967200,0.73896728515625,0.03466565518975258,-0.17133781451759858,-0.05240969393402338
1782942140698952200,0.7489521484375,-0.034575054296851156,-0.17465448305122552,0.00008227145597338676
1782942140708937200,0.758937255859375,-0.0835766933530569,-0.20289932967955246,0.03995594361759722
1782942140718922200,0.768922119140625,-0.10623860701620579,-0.19012113318173213,0.07527940512895584
1782942140728907000,0.778906982421875,-0.15850304726064204,-0.1655746478809975,0.1067505020610988
1782942140738892300,0.788892333984375,-0.17174071449637413,-0.14657206044299528,0.10721117837540804
1782942140748877300,0.798877197265625,-0.10620470474660396,-0.11876481064748949,0.0550528288539499
1782942140758862300,0.8088623046875,-0.08443126435577869,-0.09991138588921167,0.09099646809026599
1782942140768847000,0.81884716796875,-0.10528875894546508,-0.13394646982415578,0.12619674161337316
1782942140778832100,0.82883203125,-0.16299802059233187,-0.19139506210768595,0.09102032388988882
1782942140788817200,0.838817138671875,-0.22064590744078158,-0.21428442785115911,0.03783442141897976
1782942140798802200,0.84880224609375,-0.3054582800686359,-0.24741721091782673,0.016812858841381968
1782942140808787200,0.858787109375,-0.31576106289625167,-0.2804462230827659,0.052541247891820964
1782942140818772000,0.86877197265625,-0.2709469386577606,-0.26449109531557186,0.09436462934911251
1782942140828757200,0.87875732421875,-0.25673136630058285,-0.14239798962874337,0.09829849819932132
1782942140838742300,0.8887421875,-0.24171499895453452,-0.0618563713889569,0.04633041055295616
1782942140848727300,0.898727294921875,-0.21578034723103046,-0.08341498171901329,-0.03363032079264521
1782942140858712300,0.90871240234375,-0.1779459988772869,-0.1565341218078509,-0.055261539701186115
1782942140868697000,0.918697021484375,-0.08979951339066028,-0.22413374955654142,-0.09207896609734743
1782942140878682000,0.92868212890625,-0.01285889705121517,-0.2456058141143061,-0.135488959158957
1782942140888667100,0.938667236328125,-0.003384381741285324,-0.238327785935346,-0.12011566813401878
1782942140898652200,0.948652099609375,-0.041111178067326545,-0.2055881486384198,-0.08100516236461698
1782942140908637200,0.95863720703125,-0.060898413076996796,-0.1641472271600738,-0.047652124143391844
1782942140918622200,0.968622314453125,-0.07261106270253657,-0.14653065072037277,-0.0033190248874947425
1782942140928607200,0.978607177734375,-0.08870178128182887,-0.14321027412600815,0.06330481663160026
1782942140938592300,0.98859228515625,-0.08901625405848025,-0.1296481607088819,0.1037503703970462
1782942140948577300,0.998577392578125,-0.08704875337779522,-0.11728212520852685,0.10018884199056774
1782942140958562000,1.00856201171875,-0.08807225120663642,-0.1323051780236885,0.06597827362455427
1782942140968547000,1.018547119140625,-0.12528642183542252,-0.15514390955846755,0.038524339911900456
1782942140978532000,1.028531982421875,-0.12598551001548766,-0.20667356925494967,0.02637132610771805
1782942140988517400,1.038517333984375,-0.07902969757318497,-0.22807408468015491,0.05110471228267997
1782942140998502100,1.048502197265625,-0.126240361559391,-0.23508100430015474,0.09984050347693264
1782942141008487200,1.058487060546875,-0.1578986516267061,-0.19812110069338232,0.1568683587308973
1782942141018472200,1.06847216796875,-0.14676818580329418,-0.11256306079737842,0.18656532212998717
1782942141028457200,1.078457275390625,-0.13880465957820415,-0.057037061473727224,0.20881262711025772
1782942141038442200,1.088442138671875,-0.14478139590024947,-0.055789910956844685,0.23347316724471748
1782942141048427000,1.098427001953125,-0.13071195401549338,-0.0664780398402363,0.2489572982329875
1782942141058412000,1.108412109375,-0.08195055345594883,-0.04322473615519702,0.21967136332020162
1782942141068397300,1.118397216796875,-0.04762567452788353,-0.020688348567858336,0.16500241921730338
1782942141078382300,1.12838232421875,-0.018712883776426315,-0.03502531881500035,0.14589629833959042
1782942141088367000,1.1383671875,-0.055467620199918743,-0.07151698385551572,0.1465408798534423
1782942141098352000,1.14835205078125,-0.12452712790071964,-0.11931187747046351,0.1497428542325273
1782942141108337200,1.158337158203125,-0.09804419464468955,-0.14309490411803125,0.1533699952211231
1782942141118322200,1.168322265625,-0.05937164190113544,-0.09354290117006749,0.17416125617418438
1782942141128307200,1.17830712890625,-0.10338146401941775,-0.06891502119619398,0.1651718940326944
1782942141138292000,1.1882919921875,-0.10974340026676654,-0.08734532517157495,0.1148089765606448
1782942141148278300,1.1982783203125,-0.0793330644339323,-0.10958506789989769,0.09106642805393785
1782942141158262300,1.20826220703125,-0.10072422750890254,-0.1371476130861789,0.11153587317410855
1782942141168247300,1.218247314453125,-0.15646014325618743,-0.18635346947759387,0.09396149190831929
1782942141178232300,1.228232421875,-0.1453372762173414,-0.21224428205937146,0.06938267524056137
1782942141188218000,1.238218017578125,-0.12150865686237812,-0.18952493912056087,0.08785079047568142
1782942141198203100,1.248203125,-0.11149521237015723,-0.17978563539460302,0.11714034211765974
1782942141208188200,1.258188232421875,-0.09761749366521835,-0.1717588346749544,0.12385741194561123
1782942141218173200,1.268173095703125,-0.1118324815005064,-0.1711594074770808,0.10786156857553869
1782942141228158200,1.278158203125,-0.12325403922498225,-0.18781528565846384,0.06523355620447546
1782942141238143200,1.288143310546875,-0.12592121260762215,-0.2339830164629966,0.031704028905183076
1782942141248128300,1.298128173828125,-0.16080314089655875,-0.25944281721636653,0.024463848518580196
1782942141258113000,1.308113037109375,-0.21900456997454165,-0.29256489622592924,0.05978128214795142
1782942141268098000,1.31809814453125,-0.24299042571783064,-0.28309483789540824,0.07530636620111764
1782942141278083000,1.3280830078125,-0.26574177123010156,-0.25284809512645007,0.04043879523109645
1782942141288068400,1.338068359375,-0.23109598978459833,-0.23799875491037964,-0.0020616452375426886
1782942141298053400,1.348053466796875,-0.201553084436059,-0.2432229923646897,0.016306882080622018
1782942141308038100,1.3580380859375,-0.21918226462900636,-0.2582311033390462,0.04950337803326547
1782942141318023200,1.368023193359375,-0.19126082300245761,-0.260657380637899,0.04984700383916497
1782942141328008200,1.37800830078125,-0.1523041926205158,-0.24682006700858472,0.044526795197091996
1782942141337993200,1.3879931640625,-0.1428413677483797,-0.24749044055081904,0.027099165458232162
1782942141347978200,1.397978271484375,-0.10020224946141243,-0.2632709972023964,0.0033869024919345975
1782942141357963000,1.407962890625,-0.018327099329233168,-0.22863332599811254,0.04108158664666116
1782942141367948300,1.4179482421875,0.007292495095729827,-0.1818223288539797,0.09723718911074102
1782942141377933300,1.427933349609375,-0.03555237489640713,-0.1821026071000844,0.11953870849628001
1782942141387918300,1.43791845703125,-0.11959960837066173,-0.19600553331151604,0.14382873481791467
1782942141397903000,1.447903076171875,-0.22954817582070827,-0.22784020285904405,0.1644374422783032
1782942141407888100,1.45788818359375,-0.19080898758172987,-0.2536735130999237,0.12010452568549662
1782942141417873200,1.467873046875,-0.03304360694587231,-0.21618666300959885,0.09950889690238982
1782942141427858200,1.477858154296875,0.03645312312841415,-0.16086524634733795,0.0863392168689519
1782942141437843200,1.48784326171875,0.005071311914920807,-0.13049436574205756,0.07448332284782082
1782942141447828200,1.497828125,-0.05929623857736587,-0.14400478550456464,0.06913173268679529
1782942141457813200,1.507813232421875,-0.11876783372163773,-0.18179441793374715,0.058951297597214576
1782942141467798300,1.51779833984375,-0.1776934854209423,-0.21618483637869357,0.03660502575449645
1782942141477783300,1.527783203125,-0.1732575488001108,-0.24148111713342368,0.024611148034781215
1782942141487768000,1.53776806640625,-0.11507599346637726,-0.20213957908712327,0.026150121105089782
1782942141497753000,1.547753173828125,-0.1570592781931162,-0.14710662397742272,0.057140558380819856
1782942141507738000,1.557738037109375,-0.20661796661019324,-0.12120799341537057,0.05275543863177299
1782942141517723100,1.56772314453125,-0.27779870424866676,-0.1063501410992816,0.010616269223578273
1782942141527708400,1.57770849609375,-0.18564415216445923,-0.09688114221468568,-0.04342570208739489
1782942141537693200,1.587693115234375,-0.048451603958010674,-0.06595635405369103,-0.09214322697259485
1782942141547678200,1.59767822265625,-0.03025017683506012,-0.0821609448036179,-0.08208309379443526
1782942141557663200,1.607663330078125,-0.07240297290980816,-0.14517561938222498,-0.03239880623631179
1782942141567648300,1.617648193359375,-0.09583703998923301,-0.19366653243731707,-0.016457432999834418
1782942141577633000,1.627633056640625,-0.07873334497511386,-0.21065208096448332,-0.03146879537720233
1782942141587618000,1.6376181640625,-0.08706628903448581,-0.2063152938691899,0.016333532625529914
1782942141597603000,1.64760302734375,-0.18296353477835653,-0.1711735456002876,0.037515144603047515
1782942141607588400,1.65758837890625,-0.17404840691685675,-0.1324982163777575,0.01969867994338274
1782942141617573400,1.667573486328125,-0.12988017936646937,-0.06162628896012902,0.026059209684934467
1782942141627558100,1.67755810546875,-0.17528934688866138,-0.06172061618007719,0.018219200241658837
1782942141637543200,1.687543212890625,-0.2084977890074253,-0.10041424824427812,-0.03161744660027325
1782942141647528200,1.697528076171875,-0.1373293263286352,-0.07724138938430697,-0.08659527398925274
1782942141657513200,1.70751318359375,-0.0667062225729227,-0.07729165826682001,-0.14096865094536914
1782942141667498000,1.717498046875,-0.04170797491669655,-0.12236545635480434,-0.14894868991384283
1782942141677483000,1.72748291015625,-0.013746785801649094,-0.1475285757165402,-0.08889301127130166
1782942141687468300,1.73746826171875,-0.024331308180093762,-0.11700455037616192,-0.03457246048096567
1782942141697453300,1.747453369140625,-0.02456862406730652,-0.0875327009698376,0.0226279565946199
1782942141707438300,1.757438232421875,-0.04023147262334823,-0.1091780580015853,0.03856943942895159
1782942141717423000,1.767423095703125,-0.04454875130057335,-0.1367223003461957,0.01993745713531971
1782942141727408000,1.777408203125,-0.03629237960875034,-0.15824856104291973,0.0029511414231732486
1782942141737393200,1.78739306640625,-0.05472995357513427,-0.20277831538207827,-0.02206690691206604
1782942141747378200,1.797378173828125,-0.042591187492012975,-0.22819540950488298,-0.04677329548224807
1782942141757363200,1.80736328125,-0.022404139509797093,-0.2160774852803908,-0.08149890983146615
1782942141767348200,1.81734814453125,0.03468962058722973,-0.19143256284017116,-0.08472277638195082
1782942141777333200,1.827333251953125,0.03164016988873482,-0.16302549312114714,-0.04600925230719149
1782942141787318300,1.837318359375,-0.0032370822250843046,-0.14127738810097798,0.019710416046949102
1782942141797303300,1.84730322265625,-0.06476444085538387,-0.16122540316293016,0.07667230252576991
1782942141807288000,1.8572880859375,-0.1469412042826414,-0.20672380160484463,0.10898438032669946
1782942141817273000,1.867273193359375,-0.15768004043996334,-0.2177157174740918,0.109933305948833
1782942141827257600,1.877257568359375,-0.11893325341641903,-0.1846897923153825,0.11496480644317343
1782942141837242600,1.88724267578125,-0.08663783448934555,-0.1821274492803961,0.058062212403537705
1782942141847227600,1.8972275390625,-0.054818800902366634,-0.18910870473617686,0.007729041615780442
1782942141857213400,1.90721337890625,-0.07600128966271877,-0.20433564609298482,-0.00204987260135822
1782942141867198700,1.91719873046875,-0.12534253593683242,-0.22497595426803454,-0.009480433594062924
1782942141877183700,1.927183837890625,-0.1359399177968502,-0.20650621333140878,0.029653005526354536
1782942141887168800,1.937168701171875,-0.20488719729483126,-0.18603735273312777,0.07320822487808763
1782942141897153500,1.947153564453125,-0.21201602626144886,-0.1747596239261329,0.06621163942243438
1782942141907138600,1.957138671875,-0.16449264306426048,-0.16833183763464912,0.05134025177133735
1782942141917123600,1.96712353515625,-0.19147651157975196,-0.17723531159097328,0.03620671975244768
1782942141927108600,1.977108642578125,-0.1822340514600277,-0.17931182560408487,0.0003455894341226667
1782942141937093400,1.98709326171875,-0.1743243012487888,-0.18937791359899564,-0.016706064865505323
1782942141947078700,1.99707861328125,-0.15083470458984374,-0.18195954536758363,0.009940205726074054
1782942141957063700,2.007063720703125,-0.14769406847655772,-0.16540778514780102,0.008423636283818632
1782942141967048700,2.017048583984375,-0.1842202568411827,-0.1432866090315394,0.009245866786362602
1782942141977033700,2.02703369140625,-0.221342657533288,-0.16588214292759074,0.05858219029018655
1782942141987018500,2.0370185546875,-0.23253391363322734,-0.1555566916104406,0.10354558680625632
1782942141997003500,2.04700341796875,-0.22390578601956365,-0.12123685418367385,0.08918490688996389
1782942142006988500,2.056988525390625,-0.2306149282693863,-0.10906849667988718,0.05180833964054472
1782942142016973600,2.0669736328125,-0.23305413811504838,-0.12274641849640756,0.0020691618237178772
1782942142026958600,2.07695849609375,-0.15659516781270502,-0.1288189798757434,-0.037429685676144436
1782942142036943600,2.086943603515625,-0.13684768029153346,-0.11952694499325006,-0.024669326229114084
1782942142046928600,2.0969287109375,-0.14468319622278214,-0.1142139150106348,0.009129747859714552
1782942142056913700,2.10691357421875,-0.10231763418018817,-0.06619357860935851,0.003444231302896514
1782942142066898700,2.116898681640625,-0.06136427702307701,-0.03656909592458978,0.031773459145892406
1782942142076883500,2.126883544921875,-0.08554887020885944,-0.04767884775353595,0.06363178356364368
1782942142086868500,2.136868408203125,-0.0943213747292757,-0.0553671007012017,0.034654284412367266
1782942142096853500,2.146853515625,-0.039489714345335956,-0.05061502906959504,0.02373255683565512
1782942142106838800,2.1568388671875,-0.03435702763199806,-0.05292348867505788,0.012921751420665532
1782942142116823600,2.166823486328125,-0.09180617703795432,-0.05070056106173433,-0.008785491866152732
1782942142126808600,2.17680859375,-0.09329378524720668,-0.08624933749525807,-0.02434093452496454
1782942142136793600,2.186793701171875,-0.05016834474802017,-0.10206013402147218,-0.0484693222777918
1782942142146778600,2.196778564453125,0.04311082745194435,-0.09523179497192613,-0.04484470203984529
1782942142156763600,2.206763671875,0.045264206093549725,-0.07188987228851765,-0.008586297765932976
1782942142166748400,2.21674853515625,-0.01606967579126358,-0.09335862151118926,0.007840045975893736
1782942142176733400,2.2267333984375,-0.05189151527881622,-0.12846568205920048,-0.01888681557122618
1782942142186718700,2.23671875,-0.07928279555141925,-0.14967801796854474,-0.045469519407302136
1782942142196703700,2.246703857421875,-0.1280225688010454,-0.1599008217619732,-0.027008034842368214
1782942142206688800,2.256688720703125,-0.2502770755946636,-0.153929674930498,-0.0049714865359477695
1782942142216673500,2.266673583984375,-0.2871697591841221,-0.14992946284580974,-0.01885936130871996
1782942142226658600,2.276658447265625,-0.21315175229310987,-0.15173628393891267,-0.05475114249363541
1782942142236643600,2.2866435546875,-0.12907178559303284,-0.11146238781278953,-0.08703452392304316
1782942142246628600,2.296628662109375,-0.11162497622966766,-0.0986708112435881,-0.09911664618179201
1782942142256613400,2.30661328125,-0.11407412294745445,-0.09658110895534046,-0.10508792087743059
1782942142266598700,2.3165986328125,-0.11568915692865848,-0.11999657179899513,-0.08088780132895335
1782942142276583700,2.326583740234375,-0.16270751321315766,-0.146426057834737,-0.030841712987422942
1782942142286568700,2.336568603515625,-0.08958616290092468,-0.13917990436507388,0.009733458507061005
1782942142296553700,2.3465537109375,-0.014559855750203132,-0.10576669692182913,0.018097382226586342
1782942142306538500,2.35653857421875,-0.0397013112694025,-0.10935206286162137,0.027978943967446684
1782942142316523500,2.3665234375,-0.09450608364641666,-0.11653879602793603,0.03385068554505705
1782942142326508500,2.376508544921875,-0.02824760484099388,-0.0843776892713271,0.03628112756237387
1782942142336493600,2.38649365234375,0.007355623459815978,-0.06417608760737348,0.01626972840800881
1782942142346478600,2.396478515625,-0.008946107521653176,-0.09429447758919558,-0.026986864190176128
1782942142356463600,2.406463623046875,-0.0075718965590000145,-0.1297316742738709,-0.03660917220665142
1782942142366448600,2.41644873046875,0.00608545739352703,-0.1362877722532954,-0.04683264272036031
1782942142376433700,2.42643359375,-0.037564883762598034,-0.12026745202909223,-0.04505726707829162
1782942142386418700,2.436418701171875,-0.08613514566421508,-0.10324953560228459,0.004969221513625234
1782942142396403500,2.446403564453125,-0.052371992272138596,-0.10451410304484889,0.0459897438891232
1782942142406389500,2.456389404296875,-0.012603460985422133,-0.1066164090863429,0.02271309586111456
1782942142416374800,2.466374755859375,-0.016664134553074837,-0.12463734680954366,0.001687167635653168
1782942142426359600,2.476359619140625,0.015195815566182136,-0.15016215735683217,0.031835546330362556
1782942142436344600,2.486344482421875,0.020417349606752396,-0.14171356929484755,0.0737736767411232
1782942142446329600,2.49632958984375,0.012778233030438423,-0.1525976956743747,0.06761909963414073
1782942142456314600,2.506314697265625,0.03940028249621391,-0.15359236926753073,0.045485283232014624
1782942142466299600,2.516299560546875,-0.014507248780131338,-0.15765868712468073,0.0354323469796218
1782942142476284400,2.526284423828125,-0.058416533133387565,-0.19616074213953688,0.022967856073472646
1782942142486269400,2.53626953125,-0.09517010051310063,-0.20094213119717313,0.06673778675496578
1782942142496254700,2.546254638671875,-0.16022271066009997,-0.20271931520383804,0.08543887049574404
1782942142506239700,2.55623974609375,-0.19832301647365091,-0.2019534088652581,0.0811967485471163
1782942142516224500,2.566224609375,-0.15916414151787758,-0.19848796124439685,0.09117207125234417
1782942142526209500,2.57620947265625,-0.0927349823206663,-0.17905016072690486,0.06923507433026098
1782942142536194600,2.586194580078125,-0.11864099247157572,-0.1720738371745683,0.07113518146369606
1782942142546179600,2.5961796875,-0.15251988119781015,-0.1927705517119728,0.07230686472472735
1782942142556164600,2.60616455078125,-0.17956804712116717,-0.2185024108723737,0.05984301313939504
1782942142566149400,2.6161494140625,-0.1614858624637127,-0.21928293025819584,0.062099724291311574
1782942142576134700,2.626134765625,-0.21004268036186693,-0.22988022078666834,0.07622591959829442
1782942142586119700,2.63611962890625,-0.24156185421943663,-0.26941803032374007,0.0815904240398202
1782942142596104700,2.646104736328125,-0.23028993409872053,-0.24251767537323757,0.09259611270609311
1782942142606089500,2.65608935546875,-0.28574235672950743,-0.2168436108146794,0.13850633421875536
1782942142616074500,2.666074462890625,-0.3113841629862785,-0.21561874519484117,0.14020792310540564
1782942142626059500,2.6760595703125,-0.2623193955659866,-0.20472367729619145,0.1160783297761809
1782942142636044500,2.68604443359375,-0.20874328820109367,-0.18557897797375916,0.07030870404429733
1782942142646029800,2.69602978515625,-0.15935352661013602,-0.1891584438957274,0.03137036737087182
1782942142656014600,2.7060146484375,-0.13033084574341774,-0.18555954262092708,0.0020632526727393267
1782942142665999600,2.71599951171875,-0.10926935301423073,-0.1813143245329149,-0.007314012807793915
1782942142675984600,2.725984619140625,-0.0849444745749235,-0.18500894126715137,-0.0031766938073560596
1782942142685969700,2.7359697265625,-0.04060439758896828,-0.18241143558723852,-0.0030413952562026677
1782942142695954700,2.74595458984375,-0.051069092980027195,-0.16692918602880089,0.02439346842980012
1782942142705939500,2.755939453125,-0.08146949194073677,-0.16066948631322012,0.05290198922930285
1782942142715924500,2.765924560546875,-0.1214572189360857,-0.12678787590693683,0.07777357829855755
1782942142725909800,2.77590966796875,-0.15303952115774153,-0.09147877171449363,0.06229395908862352
1782942142735894800,2.785894775390625,-0.0656166737705469,-0.053775059436517766,-0.035792047137487674
1782942142745879600,2.795879638671875,0.008816343662142753,-0.029296520238881928,-0.04105950267901644
1782942142755864600,2.805864501953125,-0.01488894157409668,-0.0278020256311167,0.020016805981844663
1782942142765849600,2.815849609375,-0.00279459915459156,-0.029028206425206735,0.04035897146053612
1782942142775834600,2.825834716796875,0.06245207225978374,-0.0189168362501543,0.04860288552958518
1782942142785819600,2.835819580078125,0.06278115808367729,-0.044963524380233134,0.05156893226094544
1782942142795804400,2.845804443359375,0.037250410985946655,-0.07186087452289648,0.0383939732641913
1782942142805789700,2.855789794921875,0.027329320952296256,-0.05325563410571776,0.019171313334722072
1782942142815774700,2.865774658203125,0.020892565903067588,-0.04665590704712085,-0.0004319434101693332
1782942142825760300,2.87576025390625,0.03410451417565345,-0.07213244887273758,-0.01685331871593371
1782942142835745300,2.885745361328125,0.041948213413357735,-0.07900638062967918,-0.008488490814110263
1782942142845730300,2.895730224609375,-0.0467377857774496,-0.07974764571734703,0.005836158807575703
1782942142855715300,2.90571533203125,-0.10311842916905879,-0.07795562946773134,0.023622995513956992
1782942142865701400,2.915701416015625,-0.13468085764646529,-0.08393753515523858,0.036428554942738264
1782942142875686400,2.925686279296875,-0.2039741741031408,-0.11995744536500423,0.02940158804855309
1782942142885671400,2.93567138671875,-0.24292086761295795,-0.14058406294141895,0.06034619515486993
1782942142895656400,2.945656494140625,-0.29731413657963274,-0.15559364435365422,0.08838930866601877
1782942142905641200,2.95564111328125,-0.28934418061375616,-0.16011263788174837,0.10908564874408766
1782942142915626200,2.965626220703125,-0.23786826039850711,-0.1615852677175775,0.0843508651964832
1782942142925611300,2.975611328125,-0.26289807223677636,-0.1525036698485259,0.08122075961036607
1782942142935596300,2.98559619140625,-0.27015198888778685,-0.15761979815270752,0.08273725598738528
1782942142945581300,2.995581298828125,-0.2569295192211866,-0.15284367892523296,0.059535750988242216
1782942142955566300,3.00556640625,-0.24448797079920767,-0.12615755124730058,0.037570518918940796
1782942142965551400,3.01555126953125,-0.19827040950357913,-0.11304890808556228,0.028802686007064766
1782942142975536400,3.025536376953125,-0.14446283147037028,-0.12156190315326675,0.03148618946999777
1782942142985521400,3.035521484375,-0.12061843002438545,-0.14826085378015413,0.01750836682487279
1782942142995506200,3.045506103515625,-0.13105916001796722,-0.1255027132009156,0.04790650532983709
1782942143005491200,3.0554912109375,-0.14284078322649002,-0.12084542544698341,0.05562940946577582
1782942143015476200,3.065476318359375,-0.1447369722366333,-0.1301747053336352,0.052142658761981875
1782942143025461500,3.07546142578125,-0.19436989493370055,-0.1404694327189587,0.04511640425384976
1782942143035446500,3.085446533203125,-0.22159224838018415,-0.15340082875080405,0.01220655235601589
1782942143045431300,3.095431396484375,-0.2113198606908321,-0.15964425318501888,-0.012008180239703506
1782942143055416300,3.105416259765625,-0.16536533424556255,-0.16282998881535604,-0.05177687592320144
1782942143065401300,3.1154013671875,-0.09823942495584487,-0.14712189461179076,-0.0945167055051308
1782942143075386400,3.125386474609375,-0.0036181904971599576,-0.1221380956060253,-0.10477666297117248
1782942143085371100,3.13537109375,0.040886721661686894,-0.09928805722594261,-0.1210616437472403
1782942143095356200,3.145356201171875,0.04681143553555012,-0.0852052992018871,-0.1402351855716668
1782942143105341400,3.155341552734375,0.02429974399805069,-0.0964712279732339,-0.13771260829148813
1782942143115326500,3.165326416015625,-0.047801615616679186,-0.1431432002391666,-0.12753723296951502
1782942143125311500,3.1753115234375,-0.08828092552125454,-0.19206907064542172,-0.10040809249812736
1782942143135296300,3.185296142578125,-0.1054097549766302,-0.18252890622075646,-0.11451518124584108
1782942143145281300,3.19528125,-0.15051263302862644,-0.1498103665107861,-0.12028985565714537
1782942143155266300,3.205266357421875,-0.2483072368264198,-0.11603102916888892,-0.1428217862650752
1782942143165251300,3.215251220703125,-0.31920331230461596,-0.07296802291404456,-0.12444065519366412
1782942143175236400,3.225236328125,-0.3004378215581178,-0.05075531432311982,-0.11322298601083457
1782942143185221400,3.235221435546875,-0.13873977764844894,-0.01758895778041333,-0.10204148411992937
1782942143195206400,3.245206298828125,0.02328969017267227,0.002758468395285308,-0.028363888164423406
1782942143205191400,3.25519140625,0.18050620475411414,-0.005748370926268399,0.03845258984994143
1782942143215176400,3.265176513671875,0.32780981260836123,-0.02940850184652954,0.11318765896912664
1782942143225161200,3.2751611328125,0.3989221611857414,-0.08657982069179415,0.15854009133540092
1782942143235146200,3.285146240234375,0.42122342484295366,-0.15046123163495212,0.18974269179077818
1782942143245131300,3.29513134765625,0.3567582591950893,-0.18103932525012642,0.2754696219802834
1782942143255116300,3.3051162109375,0.2609200501620769,-0.2058999545339495,0.29234595624562354
1782942143265101300,3.315101318359375,0.16074994940459728,-0.22584343955125658,0.2643380053794011
1782942143275087400,3.32508740234375,0.11897066281735896,-0.24949319520797578,0.24835867475271223
1782942143285072400,3.335072265625,0.08083411664664746,-0.226293777134642,0.2038188374109566
1782942143295057400,3.345057373046875,0.04249474138021469,-0.1650457103697583,0.13104925967846065
1782942143305042200,3.355042236328125,-0.01224982524216175,-0.15618348173927515,0.05365211347686127
1782942143315027200,3.365027099609375,-0.07285130119919776,-0.22193755468651652,0.04222047274978831
1782942143325012500,3.375012451171875,-0.14796762472093106,-0.2326902367061004,0.07849973714863881
1782942143334997500,3.38499755859375,-0.24784838714301585,-0.24097119484990834,0.12006283283508382
1782942143344982300,3.394982177734375,-0.292030058696866,-0.25424711173679676,0.1613113278807141
1782942143354967300,3.40496728515625,-0.28983693256676196,-0.27224457725286483,0.15739172501787543
1782942143364952300,3.414952392578125,-0.279195127043128,-0.3000380816508084,0.12244211092074402
1782942143374937300,3.424937255859375,-0.271593419867754,-0.2762341583456844,0.06570152990925125
1782942143384922400,3.43492236328125,-0.2994067249447107,-0.2220765612984076,0.00955228697483253
1782942143394907100,3.4449072265625,-0.30581776103079317,-0.16582144398260862,-0.006121475130046019
1782942143404892400,3.454892333984375,-0.31216800684034823,-0.11758709950447081,-0.03429963945553172
1782942143414877400,3.46487744140625,-0.27271453285217284,-0.08601564747039228,-0.05460909454128705
1782942143424862500,3.474862548828125,-0.20513561909794806,-0.03784472361728549,-0.05315305508065503
1782942143434847200,3.48484716796875,-0.16295067431926727,0.01628792165182531,-0.03187196250074776
1782942143444832300,3.494832275390625,-0.16704174302518368,0.04479092602599412,-0.010673571776720927
1782942143454817300,3.5048173828125,-0.13490589857399463,0.009088365536555648,-0.013636517802119488
1782942143464802300,3.51480224609375,-0.08593640822172165,-0.031119872341677544,-0.044490267145563846
1782942143474787300,3.524787353515625,-0.0678910484433174,-0.0016429083688184619,-0.058481323731597507
1782942143484772400,3.5347724609375,-0.09202654179036616,0.011291245875693858,-0.07173502878667787
1782942143494757400,3.54475732421875,-0.03510170851945877,0.02082231367845088,-0.07204904947218019
1782942143504742400,3.554742431640625,0.01446457868218422,0.09209865717850625,-0.09666928956229238
1782942143514727400,3.5647275390625,0.06017477497756481,0.10457889364305883,-0.10306022357526234
1782942143524712400,3.57471240234375,0.14070026406645775,0.07474299669731407,-0.08551635617874562
1782942143534697200,3.584697265625,0.1874450641065836,0.04372874015457928,-0.05638388566146604
1782942143544682200,3.59468212890625,0.16353578073084354,0.011487426034919916,-0.017569105727405984
1782942143554667300,3.604667236328125,0.13859540074169635,-0.0237658197844401,0.026071605658915357
1782942143564652500,3.614652587890625,0.07519815658628941,-0.03621840105708688,0.08402594409105367
1782942143574637300,3.62463720703125,0.021896189987659454,-0.07347038294561208,0.11118571716272271
1782942143584622300,3.634622314453125,-0.054668578776717186,-0.09864581379964947,0.12587355580730364
1782942143594607400,3.644607421875,-0.06245207225978374,-0.10614113799110055,0.12638304883255622
1782942143604592400,3.65459228515625,-0.04867547584176063,-0.13577804176602512,0.11103850897806695
1782942143614577400,3.664577392578125,-0.0893891790241003,-0.12926153601147233,0.09330133836599998
1782942143624562200,3.674562255859375,-0.12657353903651236,-0.10446301217842846,0.08973814772539772
1782942143634547200,3.684547119140625,-0.08495967214405536,-0.1021659142171964,0.08004808083549142
1782942143644532500,3.694532470703125,-0.05308218636810779,-0.10771211363486945,0.10197357911602593
1782942143654517500,3.704517578125,-0.09907704482376575,-0.12965130251403897,0.1548649282203056
1782942143664502300,3.714502197265625,-0.17139175492823122,-0.14386289281584322,0.16444507759548724
1782942143674488300,3.72448828125,-0.16240940704941748,-0.160034531144239,0.131932782781031
1782942143684473300,3.734473388671875,-0.102342184099555,-0.18095862469673155,0.06398729617015923
1782942143694458400,3.744458251953125,-0.06060556761026382,-0.1780905219145119,0.024746387220430186
1782942143704443400,3.754443359375,-0.06772036805152892,-0.1815036548262462,0.012972805754467845
1782942143714428400,3.764428466796875,-0.10875731183886528,-0.20575988847613333,0.00934470121806953
1782942143724413400,3.774413330078125,-0.18437807775139808,-0.24650643448214976,0.061542875859839835
1782942143734398500,3.7843984375,-0.2475280691474676,-0.2226610466554761,0.12435798187889158
1782942143744383200,3.79438330078125,-0.2427525253087282,-0.17558354406226426,0.11768483339105731
1782942143754368300,3.8043681640625,-0.19403437936902046,-0.14151326094977557,0.08416761758406646
1782942143764353300,3.814353271484375,-0.0914805983453989,-0.10643427571877837,0.06067211177414283
1782942143774338300,3.82433837890625,-0.025402152281999588,-0.123697910534963,0.02668766204789281
1782942143784323300,3.8343232421875,0.0159685535043478,-0.15093535195272414,-0.010232064812118188
1782942143794308400,3.844308349609375,0.02958908257782459,-0.13731529780328272,-0.04179894113577902
1782942143804293400,3.85429345703125,0.008076923471689224,-0.15173486829996108,-0.04144302210388705
1782942143814278400,3.8642783203125,-0.0356973363250494,-0.18716255737077445,-0.029550732461968435
1782942143824263000,3.874262939453125,-0.03936521118283272,-0.22465379137527197,0.002005366739351302
1782942143834248000,3.884248046875,-0.04128653463423252,-0.23380053603556006,0.01068739823102951
1782942143844232700,3.894232666015625,-0.04300912064313888,-0.23272768263965843,0.026785386801324782
1782942143854217700,3.9042177734375,-0.07764788782596588,-0.24132143305968493,0.06652245893727522
1782942143864202800,3.91420263671875,-0.10022212320566176,-0.22571276237629354,0.08422823433065786
1782942143874187800,3.924187744140625,-0.07828560120761394,-0.21604546444062142,0.05882512306743301
1782942143884172800,3.9341728515625,-0.05583586899042129,-0.1864008157506585,0.05796380723009351
1782942143894157800,3.94415771484375,-0.05974339782297611,-0.18952610816434023,0.04288615185059607
1782942143904142800,3.954142822265625,-0.08486673316359519,-0.20669252968374638,0.03507266508806497
1782942143914128000,3.9641279296875,-0.11112111836075782,-0.213454351968877,0.046063603709777814
1782942143924113000,3.97411279296875,-0.14343641103208063,-0.2405606047550216,0.07678601943277753
1782942143934097700,3.98409765625,-0.2415548399567604,-0.2928231818359345,0.13335417561996726
1782942143944082700,3.994082763671875,-0.26951953620314595,-0.26572222627941516,0.16371153915654868
1782942143954066700,4.004066650390625,-0.29458383483290673,-0.19930395380239932,0.10950728995595127
1782942143964051700,4.0140517578125,-0.2554413264900446,-0.15937380221318453,0.04155882593670394
1782942143974036700,4.02403662109375,-0.19969956552386284,-0.16042484563607723,0.00048182870019227266
1782942143984022000,4.03402197265625,-0.14380641338825226,-0.16619221352376043,-0.0225778429757338
1782942143994006800,4.0440068359375,-0.11777999172806738,-0.1620712611362338,-0.05390753127634525
1782942144003991800,4.05399169921875,-0.08097966259717941,-0.167228315105848,-0.07819826085087843
1782942144013976800,4.063976806640625,-0.058902270823717115,-0.1966270992759615,-0.08244480324629694
1782942144023961900,4.0739619140625,-0.0523848517537117,-0.20129965766426175,-0.06695510103376581
1782942144033947000,4.08394677734375,-0.10915829385519027,-0.20914036122728139,-0.0046412225351203235
1782942144043931600,4.093931640625,-0.13441723827421664,-0.23868794275093821,0.018410046638641504
1782942144053916700,4.103916748046875,-0.1321358493387699,-0.22028635341338812,0.004420465057063848
1782942144063902000,4.11390185546875,-0.1664215653002262,-0.2049838991349563,-0.016456656681699676
1782942144073887000,4.123886962890625,-0.20336393325030802,-0.18147782626524567,-0.03799219666342251
1782942144083871700,4.133871826171875,-0.13643734592497347,-0.15963727545496076,-0.07479864500784315
1782942144093856800,4.143856689453125,-0.029057167658209797,-0.14814999555051325,-0.09839882590179332
1782942144103842800,4.1538427734375,-0.01147299565076828,-0.13238028908651323,-0.0834414587339852
1782942144113827600,4.16382763671875,-0.018376783689856527,-0.12057097415346651,-0.059948674604110415
1782942144123812900,4.173812744140625,0.03390811482071876,-0.13838110040389,-0.04721590641690418
1782942144133798000,4.1837978515625,0.04710486552417278,-0.162819229959324,0.007445114674442447
1782942144143783000,4.193782958984375,0.017034136909246444,-0.1410619004530832,0.044927165292063725
1782942144153768000,4.203767822265625,-0.009803016611933708,-0.10649141273349523,0.041425445348001085
1782942144163752700,4.213752685546875,-0.01938800655901432,-0.0962960358031094,0.013080508479219861
1782942144173737700,4.22373779296875,-0.02329319730401039,-0.05927135986443609,-0.011771763968211599
1782942144183722800,4.23372265625,-0.012286065599322318,-0.05004004219323396,-0.028505885884421874
1782942144193707800,4.243707763671875,0.057767713835835455,-0.05852196626923978,-0.04823151320023462
1782942144203692800,4.25369287109375,0.08291501457393169,-0.06233538707755506,-0.04278565518476534
1782942144213677800,4.263677734375,0.03329670492410659,-0.0697528602598235,-0.031709696027566674
1782942144223662800,4.273662841796875,-0.0291050984531641,-0.10406161003699525,-0.03160941399086732
1782942144233647900,4.28364794921875,-0.047424598997831344,-0.12211270543644204,-0.03885547612898517
1782942144243633000,4.2936328125,-0.09799977098107338,-0.11286681125061586,0.007344558643107302
1782942144253617700,4.30361767578125,-0.16185644934177398,-0.11933827228704466,0.04876049637724645
1782942144263602700,4.313602783203125,-0.22946517371237277,-0.11767600163063034,0.08371704253866337
1782942144273587700,4.323587646484375,-0.3092629330486059,-0.13689743771739304,0.07041166209527291
1782942144283573000,4.333572998046875,-0.31031507245004175,-0.12841330341799184,0.02270040077632293
1782942144293557800,4.343557861328125,-0.26751287255585193,-0.12224528230754658,-0.014975832122971768
1782942144303542800,4.353542724609375,-0.18952537751197815,-0.14053484437167643,-0.042186196020850907
1782942144313527800,4.36352783203125,-0.1198708265274763,-0.13152940787822007,-0.05534766534836962
1782942144323512800,4.373512939453125,-0.07032441307008266,-0.1277882851211354,-0.0791698640957009
1782942144333497900,4.383497802734375,-0.037836686441302295,-0.14242653986979276,-0.06471054154394659
1782942144343483600,4.393483642578125,-0.006770517048239708,-0.16784734205333515,-0.03729292125368956
1782942144353469000,4.403468994140625,-0.016417466315627096,-0.17906758678574114,-0.015182700356282292
1782942144363454000,4.413453857421875,-0.07290566173493862,-0.2208700350528583,0.037890206726826726
1782942144373438700,4.423438720703125,-0.14187924471795557,-0.23893998128324745,0.1159357155682519
1782942144383423700,4.433423828125,-0.17373510318398475,-0.22890346644269302,0.15464509319085626
1782942144393408800,4.44340869140625,-0.21507015313506125,-0.17193419124186038,0.13364650049689225
1782942144403393800,4.453393798828125,-0.24301906729042527,-0.15545717675872145,0.12406882620658725
1782942144413378800,4.46337890625,-0.19682664043605327,-0.168226441031415,0.08607341467277146
1782942144423363600,4.473363525390625,-0.13723638734817503,-0.17343074994254856,0.06987689306486863
1782942144433350000,4.483349853515625,-0.12856968128979204,-0.20149600222026928,0.06611346257785335
1782942144443335000,4.4933349609375,-0.11722469593286514,-0.2098904854748398,0.07258860884213354
1782942144453319700,4.503319580078125,-0.16107845070660112,-0.21846249898709355,0.11168268863311968
1782942144463304700,4.5133046875,-0.22360300368070601,-0.24445333787724374,0.1574415555089712
1782942144473289700,4.523289794921875,-0.21023498806357382,-0.2512910749427974,0.19082471487382427
1782942144483274800,4.533274658203125,-0.20090894131362438,-0.2507921124447137,0.21264564766818655
1782942144493260000,4.543260009765625,-0.1760463027358055,-0.2511767643807456,0.23893009921004996
1782942144503244800,4.553244873046875,-0.14853928712904452,-0.2407614976219833,0.23450567036392167
1782942144513229800,4.563229736328125,-0.12168868960440159,-0.24756661105956881,0.1892834585148841
1782942144523214800,4.57321484375,-0.10672025305330753,-0.23277568649984895,0.1804806501877494
1782942144533200000,4.583199951171875,-0.06637246057391166,-0.21145579856280236,0.1516036614020355
1782942144543184600,4.5931845703125,-0.0416401703774929,-0.218325757397525,0.1340833027452696
1782942144553169700,4.603169677734375,-0.0157680624961853,-0.20242334619825705,0.14626160625433549
1782942144563154700,4.61315478515625,-0.020070143604278563,-0.19548740945523604,0.1938138684861362
1782942144573140000,4.623139892578125,-0.08423194239139556,-0.21573767713308334,0.2396285298029892
1782942144583125000,4.633125,-0.18626082275807856,-0.2762548906064592,0.25739171163914726
1782942144593109800,4.64310986328125,-0.14397241760492324,-0.268374129027687,0.19796260392973197
1782942144603094800,4.6530947265625,-0.030105215406417845,-0.18827387961354106,0.11379336977731436
1782942144613079800,4.663079833984375,0.10551087726354598,-0.13644118184987455,0.05511551882661879
1782942144623064800,4.67306494140625,0.21507775191962716,-0.09943047963762655,0.027299619933776557
1782942144633049600,4.683049560546875,0.2246235789000988,-0.07363291199698578,0.01744578645005822
1782942144643034600,4.69303466796875,0.1223714111715555,-0.12338946564029901,0.03507821804601699
1782942144653020000,4.70302001953125,-0.007225859600305556,-0.1844906164814718,0.1078062947243452
1782942144663005000,4.7130048828125,-0.11182429819405078,-0.20001803862219675,0.20901921906564383
1782942144672990000,4.722989990234375,-0.16252455786168574,-0.2043189689528197,0.22663692801650612
1782942144682974700,4.732974609375,-0.10842822601497172,-0.21434247818132862,0.1912844596063718
1782942144692959700,4.742959716796875,-0.042025370302796364,-0.18529599631391463,0.1309257246303372
1782942144702944800,4.75294482421875,-0.02847030768096447,-0.19035039362665265,0.09875627017049118
1782942144712929800,4.7629296875,-0.06664367873072624,-0.22217856036815792,0.0750573781424202
1782942144722914800,4.772914794921875,-0.13951894532740114,-0.24971513086296618,0.05803655737247318
1782942144732899800,4.78289990234375,-0.2033867296040058,-0.23922652487335724,0.059616702703386544
1782942144742884900,4.792884765625,-0.2128290962100029,-0.19304005283573641,0.08030678657060489
1782942144752870000,4.802869873046875,-0.2229799033463001,-0.18408205394688992,0.11164086791854351
1782942144762855000,4.81285498046875,-0.21613632106184957,-0.18320441259583456,0.12714859897810965
1782942144772839700,4.822839599609375,-0.18959201300740242,-0.14922380792764015,0.1326080882267095
1782942144782824700,4.83282470703125,-0.16970190214514733,-0.1544464470799081,0.1531175182973966
1782942144792809700,4.842809814453125,-0.1366109489262104,-0.14358416720600797,0.15000082931527867
1782942144802795800,4.852795654296875,-0.10305997698009013,-0.11386160357478074,0.14926603050101547
1782942144812780800,4.86278076171875,-0.05936813476979732,-0.09772274413798004,0.13526766282478347
1782942144822765800,4.872765869140625,-0.08457505674064159,-0.10703386731343344,0.1405764184910804
1782942144832751000,4.882751220703125,-0.12015724225342272,-0.1216692542515695,0.15226758693717418
1782942144842736000,4.892736083984375,-0.05353986700773239,-0.14205924092736094,0.15261126754200086
1782942144852721000,4.902720947265625,-0.006476502537727356,-0.1529997188703157,0.09846961698252707
1782942144862706000,4.912705810546875,0.07339373751282692,-0.1436332122458145,0.053118481524195515
1782942144872691000,4.92269091796875,0.07813421003818512,-0.15298638446470722,0.046146688016504046
1782942144882676000,4.932676025390625,-0.024010990184545517,-0.15065143871111794,0.07147223139833658
1782942144892660700,4.94266064453125,-0.08474339904487133,-0.15214769601770675,0.058862267606891686
1782942144902645800,4.952645751953125,-0.05735036520659923,-0.14154104400584475,0.036497565058339385
1782942144912631000,4.962631103515625,-0.0640524931937456,-0.12842815392725168,0.047722942623589185
1782942144922616000,4.972615966796875,-0.05514321055114269,-0.1280950312490575,0.06103303577471524
1782942144932601000,4.98260107421875,-0.02701543269753456,-0.13930954036042092,0.07116522954208776
1782942144942585900,4.9925859375,-0.009016250148415565,-0.159690046821814,0.07710115892970934
1782942144952571000,5.00257080078125,-0.007311199796199798,-0.18695108831087126,0.09145038587022572
1782942144962556000,5.012555908203125,-0.0014513678520917891,-0.2208714232923463,0.10389494823319836
1782942144972541000,5.022541015625,-0.04819149171710014,-0.23035359218576923,0.11288947974015026
1782942144982526000,5.03252587890625,-0.11387363193929195,-0.2598602206445299,0.1026988703164272
1782942144992511000,5.042510986328125,-0.1317488958477974,-0.26704087112993,0.09087925318507477
1782942145002496000,5.05249609375,-0.13561843075752258,-0.22655514975087715,0.09194050747472793
1782942145012481000,5.06248095703125,-0.18815642724633216,-0.18664138304088262,0.11579736654348671
1782942145022466000,5.072466064453125,-0.22512042250633238,-0.19369592292858287,0.10265477544637397
1782942145032450800,5.082450927734375,-0.19467033918499946,-0.19872962451316414,0.09052395520769059
1782942145042435800,5.092435791015625,-0.1489665726304054,-0.212041726958286,0.09285048019280656
1782942145052420900,5.1024208984375,-0.10355740510821342,-0.2126854134229943,0.06059247066667303
1782942145062406000,5.112406005859375,-0.03785246853232384,-0.20857878182176498,0.022194369216635822
1782942145072391000,5.122390869140625,-0.03528875552415848,-0.2254202091705054,-0.004705492543522268
1782942145082376000,5.1323759765625,-0.07634265044629573,-0.21296916226781903,-0.007402385210990905
1782942145092361000,5.14236083984375,-0.15057225426137447,-0.1791658960610628,0.026035226021148262
1782942145102346000,5.152345947265625,-0.21520985386669633,-0.17140070541966707,0.0449032090277411
1782942145112331000,5.1623310546875,-0.30869302420616146,-0.1801205664373934,0.03348609001636505
1782942145122315800,5.172315673828125,-0.3380284242838621,-0.1714281414158642,0.016915077106840908
1782942145132300800,5.18230078125,-0.25314766259491445,-0.13926711685764603,-0.01513953706799075
1782942145142285800,5.192285888671875,-0.18730185624361037,-0.11139693962745367,-0.03066787252416834
1782942145152271000,5.20227099609375,-0.11202712728977203,-0.0773000790352933,-0.06386734588518739
1782942145162256100,5.212256103515625,-0.04291910427212715,-0.02672011214592494,-0.08878778819800354
1782942145172241000,5.222240966796875,-0.041861704173684115,-0.05084856383083388,-0.08023231482859701
1782942145182227000,5.23222705078125,-0.10025076477825641,-0.06740460750008932,-0.060063313959725195
1782942145192212000,5.2422119140625,-0.13328443485200403,-0.07392035520281642,-0.043498484195815396
1782942145202196700,5.25219677734375,-0.14785831912755965,-0.08835817374223842,-0.037025981979770584
1782942145212181800,5.262181640625,-0.161171974208951,-0.10572650190875865,-0.02700315773785114
1782942145222167000,5.2721669921875,-0.1775491085141897,-0.11686367146759294,-0.028570726714981717
1782942145232152000,5.282152099609375,-0.15909166080355644,-0.1014557566538453,-0.06692750977394171
1782942145242136800,5.29213671875,-0.0806271958976984,-0.09157479770118371,-0.11388125812332145
1782942145252121900,5.302121826171875,-0.07243629065752029,-0.08788253732081502,-0.12988631684631108
1782942145262107000,5.31210693359375,-0.022401216900348662,-0.05232148592760786,-0.15350885570254175
1782942145272092000,5.322091796875,0.031744799306988716,-0.003853688886621967,-0.16309583667730912
1782942145282077000,5.332076904296875,0.0031488194197416305,-0.02708858013213612,-0.15843001855704933
1782942145292062000,5.34206201171875,-0.08938274928331374,-0.05204799361531622,-0.11877802632208913
1782942145302047000,5.352046875,-0.12661913174390793,-0.05269991361883003,-0.06245356096397154
1782942145312032000,5.362031982421875,-0.12054536478817462,-0.11479863782972097,-0.012359806688968092
1782942145322017000,5.37201708984375,-0.12323591904640196,-0.15148124059876425,0.059245449105044826
1782942145332002000,5.382001953125,-0.1337912153303623,-0.1424400021395646,0.09993256567455827
1782942145341986800,5.39198681640625,-0.16835282562375067,-0.1386059221357107,0.13505765506960452
1782942145351971800,5.401971923828125,-0.19708383006751537,-0.13862748551354742,0.17973648075694218
1782942145361956900,5.411956787109375,-0.16453940481543539,-0.08903077577417716,0.16218305094763635
1782942145371942100,5.421942138671875,-0.1046475384324789,-0.0704225396823138,0.1376408582295291
1782942145381927000,5.431927001953125,-0.12319441799223423,-0.1157662042202428,0.13563306207107378
1782942145391912000,5.441911865234375,-0.15707447576224803,-0.12197104107658378,0.12812475053388625
1782942145401897000,5.45189697265625,-0.1639770947575569,-0.11944882912258617,0.10326812157174571
1782942145411882000,5.461882080078125,-0.1671487105309963,-0.14458408322986213,0.06838016540082172
1782942145421867000,5.471866943359375,-0.15690437989234923,-0.1586909162492491,0.033941067242249844
1782942145431851800,5.481851806640625,-0.1355073715984821,-0.15143235995573923,-0.0012654716248624027
1782942145441836800,5.4918369140625,-0.11011398714482784,-0.15662923447908833,-0.06278433642145245
1782942145451822000,5.501822021484375,-0.04387947373688221,-0.14123384122019633,-0.0655528695530258
1782942145461807000,5.51180712890625,0.03073065382838249,-0.12559593530916607,-0.060755113882478326
1782942145471791900,5.5217919921875,-0.006288286489248275,-0.12790040372610093,-0.029284382276516405
1782942145481777000,5.53177685546875,-0.06470891127586365,-0.11541281507215462,0.014908303861692547
1782942145491762000,5.541761962890625,-0.11715455330610275,-0.0957228755576536,0.024155403623916206
1782942145501747000,5.551746826171875,-0.1509159531325102,-0.08980123042371123,0.007696874645538628
1782942145511732000,5.56173193359375,-0.14428279872834682,-0.07684608819009736,0.0108277565497905
1782942145521716700,5.571716796875,-0.10292436790168284,-0.05099849826211575,0.00645290246643126
1782942145531703000,5.581703125,-0.039709494575858116,-0.04868270016699098,-0.013783026158809662
1782942145541688000,5.59168798828125,-0.05326221911013126,-0.06280047470550053,0.0043858138687908645
1782942145551672800,5.6016728515625,-0.06847732389867306,-0.0692533497724682,0.07394030201230198
1782942145561657900,5.611657958984375,-0.08984159896671771,-0.07908962933318689,0.08231562390867621
1782942145571643000,5.621642822265625,-0.07229308279454708,-0.107029035874689,0.048429172930493945
1782942145581628000,5.6316279296875,0.0024596681118011473,-0.07482990322920959,0.03865003038449213
1782942145591613000,5.641613037109375,0.022969372177124022,-0.04356533432037104,0.00012218334125354885
1782942145601598000,5.651597900390625,0.04071428770422935,-0.043869290269585325,-0.02480966628156602
1782942145611583000,5.6615830078125,0.04952244805991649,-0.03823679167479276,-0.042786600466258824
1782942145621568000,5.671568115234375,0.026165537869930266,-0.06157748138234019,-0.07258519760891795
1782942145631553000,5.681552978515625,0.010104629907011985,-0.10028690467071719,-0.06762949316399172
1782942145641537800,5.691537841796875,-0.011712065103650093,-0.08941393900602124,-0.01925205042073503
1782942145651522800,5.701522705078125,-0.08344459140598773,-0.11522507394771091,0.01790808846587315
1782942145661507800,5.7115078125,-0.10901508599221706,-0.12936877751192077,0.02345784981381148
1782942145671492900,5.721492919921875,-0.07835340574681758,-0.118837939815782,0.02106410481138155
1782942145681478100,5.73147802734375,-0.04407002787292003,-0.1046239383611828,0.017289938301220536
1782942145691463000,5.741462890625,-0.01748188067674637,-0.08650218887832015,0.009592625264264642
1782942145701448000,5.751447998046875,0.001263151803612709,-0.11296085534277371,0.0036393611493520436
1782942145711433000,5.761432861328125,-0.03472527642250061,-0.1406675673732534,0.0038844584842212494
1782942145721418000,5.77141796875,-0.1274438921302557,-0.16273357923617585,0.010319752228725701
1782942145731402800,5.78140283203125,-0.16663316222429275,-0.20795708799315615,0.022941643919982015
1782942145741387800,5.7913876953125,-0.2112561478048563,-0.2005453686982393,0.03560262551261112
1782942145751372800,5.801372802734375,-0.2092167509317398,-0.20019576980927958,0.021442016479372977
1782942145761358000,5.811358154296875,-0.18411621194481848,-0.18043571506747974,0.01635490420712158
1782942145771343000,5.821343017578125,-0.10270634123682976,-0.16269028808372094,-0.004410729114338755
1782942145781328000,5.831327880859375,-0.03205225782096386,-0.17569577226508407,-0.01450852742176503
1782942145791313000,5.84131298828125,-0.029651626420021057,-0.19851943409489467,0.0014769224184565245
1782942145801298000,5.8512978515625,-0.07667582792341708,-0.20826405331678688,0.04449530408028513
1782942145811283000,5.861282958984375,-0.10428045868575572,-0.23111803721962496,0.09347204615725203
1782942145821268000,5.87126806640625,-0.07909925567805767,-0.23054363486515356,0.1462488563706167
1782942145831253000,5.8812529296875,-0.1177145252764225,-0.23016115661989897,0.1762990171215497
1782942145841238000,5.891238037109375,-0.18765724555253982,-0.23446561234816907,0.19904490100741384
1782942145851223000,5.90122314453125,-0.21708441556692123,-0.2331381083377637,0.1835977410286665
1782942145861208300,5.911208251953125,-0.2016308258473873,-0.2182843842075206,0.18083592989882452
1782942145871193000,5.921193115234375,-0.21727555422484873,-0.18971777654523028,0.1520744024526328
1782942145881178000,5.93117822265625,-0.20517127493321893,-0.16564542982857675,0.12655070615019648
1782942145891163100,5.9411630859375,-0.18981120871603488,-0.14537253019381313,0.11638745965743437
1782942145901149000,5.95114892578125,-0.12357844887375831,-0.13720197362191974,0.08099854996073991
1782942145911134000,5.961134033203125,-0.08385200316309928,-0.14095878713848067,0.04482630786662921
1782942145921119000,5.971118896484375,-0.05064765269756317,-0.15168721149964257,0.03842871578400955
1782942145931104300,5.981104248046875,-0.06342062503099441,-0.1773280679083429,0.02783478625640273
1782942145941089300,5.99108935546875,-0.146479431989789,-0.19220610449593514,-0.0017471176619641483
1782942145951074000,6.001073974609375,-0.19134090250134467,-0.1935007474163547,-0.002818016562797129
1782942145961059000,6.01105908203125,-0.1663993534684181,-0.17295175252025946,0.005859466617926955
1782942145971044000,6.021044189453125,-0.09960136095881461,-0.15051285222433505,-0.005192929000593722
1782942145981029000,6.031029052734375,-0.04494505714178085,-0.12423353351531549,0.002731726518832147
1782942145991014000,6.041013916015625,-0.03982464538812637,-0.15610051616355775,0.02179199896082282
1782942146000999000,6.0509990234375,-0.0879769741386175,-0.18075079063232988,0.03644055590778589
1782942146010984200,6.060984130859375,-0.13208967210948466,-0.15414567403504625,0.07117830821936949
1782942146020969200,6.07096923828125,-0.2053606600254774,-0.17130179335614665,0.07534720966815948
1782942146030954200,6.080954345703125,-0.24176176070570946,-0.15479414627272634,0.09929286126522346
1782942146040939000,6.09093896484375,-0.20371990708112717,-0.10497099823318422,0.08444472662555054
1782942146050924000,6.100924072265625,-0.16335107181370256,-0.09071228085402398,0.035073213077336546
1782942146060909000,6.110908935546875,-0.11589081698060034,-0.08568243346065282,-0.0011140073901973664
1782942146070894000,6.12089404296875,-0.04193301584422588,-0.08303551741475239,-0.012943524861056356
1782942146080878800,6.13087890625,-0.02054652894437313,-0.11363578632911667,-0.012175645761098712
1782942146090864000,6.140864013671875,-0.03159983787834644,-0.13622973105628042,0.020021062031853942
1782942146100849200,6.15084912109375,-0.08771043215692043,-0.15939225118532777,0.0763735205085948
1782942146110834200,6.160834228515625,-0.15011106649041175,-0.18805241888258606,0.1172497025099583
1782942146120819200,6.170819091796875,-0.1544008726388216,-0.18349283761577678,0.07032627623360603
1782942146130804000,6.180803955078125,-0.12936404653787612,-0.15605209217825902,0.041814832824654875
1782942146140789000,6.1907890625,-0.06487783810198307,-0.1413531567509286,0.020197587642539292
1782942146150774000,6.20077392578125,-0.030029812082648277,-0.14212837890712543,0.015837273541186005
1782942146160759300,6.21075927734375,-0.009887187764048577,-0.15806699393093585,0.014608097072411327
1782942146170744000,6.220744140625,-0.038008535876870156,-0.17083107057185842,0.04212333251824602
1782942146180729000,6.23072900390625,-0.06684533878266812,-0.17770840899543836,0.07064557131584734
1782942146190714000,6.240714111328125,-0.046602761220932,-0.1872973992642015,0.07887162093464285
1782942146200699100,6.25069921875,-0.05647708950340748,-0.1853099152414128,0.10637560433410108
1782942146210684200,6.26068408203125,-0.11072072086632251,-0.19308412943948058,0.14435864044353364
1782942146220669000,6.2706689453125,-0.17284662991166114,-0.20711139441663398,0.1626356535533443
1782942146230654000,6.280654052734375,-0.21575988896489143,-0.21033654874190688,0.15488474716562778
1782942146240639200,6.29063916015625,-0.239283972415328,-0.18366187403975054,0.123372825032752
1782942146250624300,6.300624267578125,-0.20338322247266769,-0.15770444422885774,0.07985568180223926
1782942146260610000,6.310610107421875,-0.14842179822921753,-0.1393555897255428,0.03321669849045574
1782942146270595000,6.320594970703125,-0.1322843178987503,-0.11758415862871334,-0.007544095236621797
1782942146280580000,6.330580078125,-0.11034838042259215,-0.13056982386475427,-0.016956998286116867
1782942146290565000,6.340565185546875,-0.07288871060013771,-0.1287491112436168,0.004276727471128106
1782942146300550000,6.3505498046875,-0.05327449406981468,-0.11335890561649575,0.014674111513327806
1782942146310535200,6.36053515625,-0.04050152173638344,-0.14010229817330835,0.05379627118790522
1782942146320520200,6.370520263671875,-0.07926233728528022,-0.16313275288790463,0.07678772733267396
1782942146330505200,6.380505126953125,-0.15573065993785856,-0.17097320072259753,0.10233610141864045
1782942146340490000,6.390489990234375,-0.23463819243609904,-0.16988489402923732,0.11007210249816998
1782942146350475000,6.40047509765625,-0.27928631245791913,-0.17140346363233402,0.0480636275537312
1782942146360460000,6.4104599609375,-0.2514092944949865,-0.15328312065526842,0.014200922777317463
1782942146370445000,6.420445068359375,-0.2110369520962238,-0.12897486455719917,-0.009268398278579115
1782942146380430000,6.43043017578125,-0.11634265240132809,-0.10224120794311166,-0.040887525379285215
1782942146390415000,6.4404150390625,-0.10094050060808658,-0.0871863717501983,-0.0638667248306796
1782942146400400100,6.450400146484375,-0.07731938652396202,-0.09622614890467375,-0.04571874492801726
1782942146410385200,6.46038525390625,-0.02907762592434883,-0.09497242251653223,0.002856741137988865
1782942146420370200,6.4703701171875,-0.05237316131591797,-0.10010843369811773,0.05550729462318122
1782942146430355200,6.480355224609375,-0.08207739470601082,-0.13043461664514616,0.1015097518634051
1782942146440340000,6.490340087890625,-0.13575403983592987,-0.148665945716016,0.12807159557454287
1782942146450325000,6.500324951171875,-0.13710486992299556,-0.16499076531212775,0.13997980430480092
1782942146460310000,6.51031005859375,-0.128588385990262,-0.16023151502106336,0.13030658808499573
1782942146470295300,6.52029541015625,-0.12403846760094166,-0.16646580630075186,0.11673314955625683
1782942146480280000,6.530280029296875,-0.06976444109976292,-0.15888590909838676,0.11835936251860112
1782942146490265000,6.54026513671875,-0.06283610314130783,-0.16532989760600028,0.1561485930889845
1782942146500250000,6.55025,-0.09468144021332263,-0.1504205434315372,0.18058127928432077
1782942146510235100,6.560235107421875,-0.0997153427273035,-0.13096701562195084,0.17911146246008575
1782942146520220200,6.57022021484375,-0.07631634696125984,-0.1300288305895403,0.14537881380412726
1782942146530205000,6.580204833984375,-0.035495676273107526,-0.11294435173254459,0.10132708877287805
1782942146540190000,6.59018994140625,-0.01563829863667488,-0.10847580975005403,0.060896294185146686
1782942146550175200,6.60017529296875,-0.03655716802477836,-0.08660712882382794,0.03936919323820621
1782942146560160300,6.61016015625,-0.08094342224001884,-0.08047817934844642,0.04502904563080519
1782942146570145000,6.62014501953125,-0.1005868648648262,-0.12397774125649592,0.03943721697311848
1782942146580130000,6.630130126953125,-0.057878772994875906,-0.1286858002164401,0.03753890907112509
1782942146590115000,6.640114990234375,-0.002573065358400345,-0.12338927384405396,0.030564138155058023
1782942146600100000,6.65010009765625,0.02393500233888626,-0.13912135171140544,0.012981390919722616
1782942146610085000,6.660085205078125,0.046615620702505106,-0.11713577554039656,-0.004512728184089064
1782942146620071200,6.6700712890625,0.02370528523623943,-0.10717075503347441,0.009660612466558813
1782942146630056200,6.68005615234375,-0.04602525359392166,-0.1082269312892109,0.04774721854832023
1782942146640041200,6.690041259765625,-0.09867956993877887,-0.11210011032759211,0.07038425349853933
1782942146650026000,6.70002587890625,-0.09996610261797904,-0.0988987839137204,0.04779430909305811
1782942146660011000,6.710010986328125,-0.1041898577928543,-0.07961432906072587,0.01860788903199136
1782942146669996000,6.71999609375,-0.10241115768253803,-0.07400858147554099,0.009361958313547074
1782942146679981000,6.72998095703125,-0.11247662462294102,-0.08695017924099228,0.0123554775737226
1782942146689966000,6.739966064453125,-0.11900514960885047,-0.10557622498418204,0.01192658463716507
1782942146699951000,6.749951171875,-0.11974047814607619,-0.12468676630868576,0.008752228917367755
1782942146709936000,6.75993603515625,-0.08399111937284469,-0.1329716425757855,0.0016835326401516794
1782942146719921200,6.769921142578125,-0.0552735589325428,-0.1473121747531928,0.014008724673464893
1782942146729906200,6.77990625,-0.028942016845941543,-0.14991827473151498,0.031458712374605236
1782942146739891000,6.789890869140625,-0.026720249143242836,-0.1422581245003268,0.04173851618543267
1782942146749876000,6.7998759765625,-0.07601999436318874,-0.14288535302057861,0.05937591621745377
1782942146759861000,6.809861083984375,-0.14218202705681324,-0.15928990505570545,0.0740059876596555
1782942146769846300,6.81984619140625,-0.19880816964209078,-0.16007088109925388,0.10042951887864619
1782942146779831300,6.829831298828125,-0.19117606732845305,-0.15960505368579178,0.12872921923305838
1782942146789816000,6.839816162109375,-0.1072358013600111,-0.15485205047242342,0.11940657001659273
1782942146799801000,6.849801025390625,-0.04889408702850342,-0.13257891693115234,0.06107563280742615
1782942146809786000,6.8597861328125,-0.06368132179379463,-0.1326731710858643,0.0232217029703781
1782942146819771100,6.869771240234375,-0.10204232437014579,-0.14597740075178445,0.013009594100899994
1782942146829755600,6.879755615234375,-0.14873451744019983,-0.19109396026926115,0.024802505888417363
1782942146839740400,6.889740478515625,-0.11089958456456661,-0.2053110669963993,0.038207419449836015
1782942146849725400,6.899725341796875,-0.06894552593231201,-0.14814464352196083,0.0570348695166409
1782942146859710500,6.90971044921875,-0.012779986596107483,-0.102419468853157,0.021217487008497116
1782942146869695700,6.91969580078125,0.04512508988380432,-0.07947046361062675,-0.016911095051467418
1782942146879680500,6.929680419921875,0.03637596623897552,-0.1027890510842204,-0.012019925476424395
1782942146889665500,6.93966552734375,-0.03753273505866527,-0.1471981564520858,0.011046879193186759
1782942146899650600,6.949650634765625,-0.12530045036077497,-0.18402539185620842,0.002569631292298436
1782942146909635600,6.959635498046875,-0.15145722040235995,-0.17885275672497228,0.013077106379158794
1782942146919620600,6.96962060546875,-0.14286650218963623,-0.15940262644886968,0.038184002041630444
1782942146929605400,6.97960546875,-0.17756313703954218,-0.14382310879472643,0.019231829616613686
1782942146939590400,6.98959033203125,-0.2003624133467674,-0.13218701327042653,-0.026814028373919427
1782942146949575700,6.99957568359375,-0.20031798968315123,-0.11384404051862657,-0.022346417973190546
1782942146959560700,7.009560791015625,-0.2301823820710182,-0.1206549809087999,-0.0012809797212481498
1782942146969546500,7.01954638671875,-0.18656886579394338,-0.12197976323915645,0.01816204496063292
1782942146979531500,7.029531494140625,-0.09615501989722251,-0.08859693266786635,-0.009167349056899548
1782942146989516500,7.0395166015625,-0.09204583101272583,-0.08751596903074532,-0.022978907190449534
1782942146999501600,7.04950146484375,-0.09115092799961566,-0.091373886567913,-0.044663719449751074
1782942147009486300,7.059486328125,-0.057498249244689936,-0.0933171843891032,-0.07285100893825291
1782942147019471600,7.0694716796875,-0.03534720771312713,-0.11858451304398476,-0.08931479861363768
1782942147029456600,7.07945654296875,-0.05907528930306434,-0.14333702404452486,-0.07652005283981561
1782942147039441700,7.089441650390625,-0.09533961186110973,-0.16302594977887347,-0.051910110381431875
1782942147049426400,7.099426513671875,-0.15534721357822417,-0.15715773359891028,-0.01270436407662928
1782942147059411500,7.109411376953125,-0.17524609226882457,-0.16414450548002496,0.01787467938661575
1782942147069396500,7.119396484375,-0.18200901053249835,-0.1355171988727525,0.03645253860652446
1782942147079381500,7.129381591796875,-0.18345687125325202,-0.09123718151096254,0.013084595565870404
1782942147089366500,7.139366455078125,-0.16105623887479303,-0.09604266383023932,-0.0074303326638415455
1782942147099351600,7.1493515625,-0.06553308714032173,-0.09516295838626102,-0.0051585883395746344
1782942147109336600,7.159336669921875,-0.03163432466983795,-0.08446089230906217,-0.011223404803872107
1782942147119321600,7.169321533203125,-0.05948854627907276,-0.1426254234427586,0.027490795124322176
1782942147129306600,7.179306640625,-0.021012392890453337,-0.20512595622045918,0.08155099621172994
1782942147139291600,7.189291748046875,-0.04563187036216259,-0.21368494585435835,0.15480810173284262
1782942147149276400,7.1992763671875,-0.14846271476149558,-0.2064753798017278,0.19573285384997724
1782942147159261400,7.209261474609375,-0.14337211362421512,-0.1863341619889252,0.14117854910269378
1782942147169246500,7.21924658203125,-0.061032853111624714,-0.15508701000576838,0.037237113112956285
1782942147179231700,7.229231689453125,-0.007948913177847862,-0.14891279661655424,-0.020176234327256678
1782942147189216500,7.239216552734375,-0.02932195607423782,-0.17865056695006787,-0.05303465743195265
1782942147199201500,7.249201416015625,-0.03629062604308128,-0.1830748679320328,-0.04718286266382783
1782942147209186600,7.2591865234375,-0.06377484529614448,-0.18049643227877094,0.017965097616426645
1782942147219171600,7.269171630859375,-0.11853870114088058,-0.18655516606215386,0.04273866967130452
1782942147229156600,7.279156494140625,-0.117504681918025,-0.15351997988475485,0.03579798368792981
1782942147239141400,7.289141357421875,-0.07244739657342433,-0.13688375625191257,0.028236791186034678
1782942147249126400,7.29912646484375,-0.02178922248184681,-0.14401234775651245,0.0007651756862178445
1782942147259111700,7.309111572265625,-0.011087211203575134,-0.14281524692643432,-0.01787818651795387
1782942147269096700,7.3190966796875,-0.047613984090089795,-0.14608714473657308,-0.004581701767072082
1782942147279081500,7.32908154296875,-0.09523322887718677,-0.1727321732191369,0.03668393620960414
1782942147289066500,7.33906640625,-0.174613055062294,-0.16232819503936916,0.06716134592927991
1782942147299051500,7.349051513671875,-0.25085633678734304,-0.16349851746037602,0.06068005761858075
1782942147309036500,7.35903662109375,-0.27340251511633396,-0.16370262519773096,0.06022982963304966
1782942147319022600,7.369022705078125,-0.259435364562273,-0.17261249236222356,0.05485672175996005
1782942147329006300,7.37900634765625,-0.22573183240294456,-0.1487509936509654,0.011551029323041438
1782942147338992600,7.38899267578125,-0.18105390176475047,-0.10800320553593337,-0.022954686064645645
1782942147348977700,7.398977783203125,-0.14264263030588625,-0.1098733833219856,-0.03280742356982082
1782942147358962400,7.40896240234375,-0.11713701764941215,-0.12835972833354026,-0.04395389067996293
1782942147368947500,7.418947509765625,-0.0757470226407051,-0.11376903905365615,-0.07045823205020278
1782942147378932500,7.428932373046875,0.011877484798431396,-0.1305979722470045,-0.038920864948816594
1782942147388917500,7.43891748046875,0.026896774753928182,-0.19109109245873987,0.03941869493573904
1782942147398902500,7.448902587890625,-0.04620587085783481,-0.20631240779235957,0.09601477117631584
1782942147408887600,7.458887451171875,-0.055984337550401685,-0.2060822522982955,0.11316172081027179
1782942147418872600,7.46887255859375,-0.061190089499950404,-0.18900537222586572,0.08165321447718887
1782942147428857600,7.478857666015625,-0.05306406618952751,-0.201053683546558,0.040677755086123944
1782942147438842600,7.488842529296875,-0.018030162209272383,-0.2058310905488208,0.02856598660778254
1782942147448827400,7.498827392578125,0.020749358040094375,-0.16011373386029154,0.04537519218735397
1782942147458812400,7.5088125,-0.01601122360229492,-0.12612316492050885,0.02655347774159163
1782942147468797400,7.51879736328125,-0.00019347674548625944,-0.116504126573354,0.01939746850710362
1782942147478782700,7.52878271484375,0.03530862926840782,-0.12162187144588678,0.042926082002185284
1782942147488767700,7.538767822265625,0.031191257077455518,-0.14474161187913268,0.053016427655518054
1782942147498752500,7.54875244140625,-0.06826455793082714,-0.1901064653355628,0.07381696789357811
1782942147508737500,7.558737548828125,-0.18582067777514458,-0.21420202853102235,0.09295067089796066
1782942147518722600,7.56872265625,-0.23895664015710352,-0.20650716317947954,0.12136990597881377
1782942147528707600,7.57870751953125,-0.21396891389489173,-0.1876935589749366,0.11548691235482691
1782942147538692400,7.5886923828125,-0.08615969558358191,-0.15858024068269877,0.09715692694876342
1782942147548677400,7.598677490234375,0.0601052168726921,-0.09952603070028125,0.02297090654708445
1782942147558662700,7.60866259765625,0.04443827666342258,-0.10942647980470209,-0.02170249404646456
1782942147568647700,7.618647705078125,-0.03542319555878639,-0.17459445995967834,0.040018633590266105
1782942147578632700,7.6286328125,1.0889520055264235,-0.09368490345664322,0.1438195651307702
1782942147588617500,7.638617431640625,0.7236644029170274,-0.17585001297872513,-0.0654512540757656
1782942147598602500,7.6486025390625,-1.2597890491813422,-0.3540963465094566,0.016394048907421528
1782942147608587500,7.65858740234375,-1.2063596568107604,-0.058920902458950875,0.12563231266364455
1782942147618572500,7.668572509765625,-0.9732494045943021,-0.1449179548267275,0.1761286837896332
1782942147628557600,7.6785576171875,-0.6978735435783863,-0.3211319057470187,0.3097186774594709
1782942147638542600,7.68854248046875,-0.39157881268560885,-0.2823577557925135,0.14484065180681646
1782942147648527600,7.698527587890625,0.29378888506293294,-0.1000981680324301,-0.13498488209433854
