time,seconds_elapsed,z,y,x
1782942156946863600,0.079863525390625,-0.13663374527990818,0.04132539620674215,-0.05988342734817415
1782942156956848600,0.0898486328125,-0.0324468100965023,-0.030814980244124306,-0.095187563104555
1782942156966833700,0.099833740234375,0.029408465313911437,-0.08678370923344045,-0.07149608719795941
1782942156976818700,0.109818603515625,0.036734862679243085,-0.10727750334357843,-0.03256769652981311
1782942156986803700,0.1198037109375,0.05326747980713844,-0.14833422954361886,-0.022274046856723725
1782942156996788700,0.129788818359375,0.05208265393674373,-0.2095482844410464,-0.043213228380493816
1782942157006773800,0.139773681640625,0.03828559925258159,-0.21546985650975256,-0.07383629364855587
1782942157016758800,0.1497587890625,0.036731355547904965,-0.18123287506084887,-0.07839600277952849
1782942157026743600,0.15974365234375,-0.006033434945344925,-0.1538372839393094,-0.05872041145078837
1782942157036728600,0.169728515625,-0.015669862818717954,-0.12438262312980368,-0.042010318864136934
1782942157046713600,0.179713623046875,-0.02420505145192146,-0.1207451525434386,-0.0489965975549072
1782942157056699600,0.18969970703125,-0.05913607957959175,-0.13641377325314097,-0.050264863925054665
1782942157066684700,0.1996845703125,-0.06876958484351635,-0.14762555155130103,-0.011334719691239297
1782942157076669700,0.209669677734375,-0.13509119201302527,-0.14845593796083703,0.030912294005602595
1782942157086654700,0.21965478515625,-0.1868085197687149,-0.12294808768150396,0.03397310634832829
1782942157096639700,0.2296396484375,-0.18407821802198887,-0.09182479954003356,0.0236591810721904
1782942157106624500,0.23962451171875,-0.2574766317099333,-0.0683112283504568,0.010820413493551314
1782942157116609800,0.24960986328125,-0.3003384528368711,-0.10641252054469659,0.03516849014535546
1782942157126594800,0.2595947265625,-0.2492231826275587,-0.14749275548448784,0.05161605933830142
1782942157136579800,0.269579833984375,-0.2145756476163864,-0.15560754501484333,0.06611757249739021
1782942157146564600,0.279564697265625,-0.18186638719141482,-0.1473614937876351,0.09355276497695594
1782942157156549600,0.289549560546875,-0.15494740060567855,-0.1350140533898957,0.054868704458698625
1782942157166534700,0.29953466796875,-0.12558160538971425,-0.13122957554827444,0.0017857874382287264
1782942157176519700,0.309519775390625,-0.12747136465907097,-0.1111998187533114,-0.00493442419487983
1782942157186504700,0.319504638671875,-0.15467267531752585,-0.11665091463290155,0.04685969512406736
1782942157196489700,0.32948974609375,-0.1263894146412611,-0.10265237342673353,0.06688519586902111
1782942157206474800,0.339474853515625,-0.12443185083270072,-0.07149986832393333,0.040897717979736625
1782942157216459800,0.349459716796875,-0.1398433549761772,-0.06092800449766218,0.01432761789690703
1782942157226444800,0.35944482421875,-0.11170680929422377,-0.04250934529430233,0.009317315454222262
1782942157236429600,0.3694296875,-0.07528758843541145,-0.010573096802132203,-0.014980711510777473
1782942157246414600,0.37941455078125,-0.040620764201879496,0.012694728598603978,-0.001143324816226959
1782942157256399600,0.389399658203125,-0.03763794899880886,-0.008702361893653868,0.03332162016965449
1782942157266384600,0.399384521484375,-0.04825228199362754,-0.016386267459765076,0.05044022049196064
1782942157276370000,0.409369873046875,-0.04479541953802108,-0.013603468340821564,0.01835080899838358
1782942157286354700,0.419354736328125,-0.045266544181108474,-0.016890947312582283,0.003857369547896087
1782942157296339700,0.429339599609375,-0.027890461966395375,-0.022708255289215593,0.006979483623802661
1782942157306324700,0.43932470703125,0.008662614405155181,-0.02596776854181662,-0.01246120297051966
1782942157316309800,0.449309814453125,0.06443710859715938,-0.04127201291853562,0.008717522930167615
1782942157326294800,0.459294677734375,0.07393734287023544,-0.048801275912206614,0.03511511599030345
1782942157336279600,0.469279541015625,0.03449555931985378,-0.06663963274327106,0.04269501319266855
1782942157346264600,0.4792646484375,-0.03590133446455002,-0.09491690207016654,0.049862128343060606
1782942157356249900,0.489249755859375,-0.06902209829986095,-0.09887943989243357,0.037127296062931414
1782942157366235000,0.49923486328125,-0.13242168054282666,-0.08580898244976996,0.041560784998349844
1782942157376220700,0.509220703125,-0.19346271696090697,-0.0701984851354733,0.021892536725848913
1782942157386205700,0.519205810546875,-0.16749708557724952,-0.052534005300281565,-0.005391483779996633
1782942157396190700,0.529190673828125,-0.1662380254268646,-0.04555074968365952,-0.010675232869200408
1782942157406175500,0.539175537109375,-0.1226116496682167,-0.04218190343822353,-0.00780848179385066
1782942157416160500,0.549160400390625,-0.1931651953190565,-0.08812046512938104,0.013023622626252472
1782942157426145800,0.559145751953125,-0.21137889740169047,-0.1665402963090688,0.10104692012462764
1782942157436130800,0.569130859375,-0.1259358256548643,-0.21037282563168555,0.11906648787464946
1782942157446115800,0.57911572265625,-0.1530588103801012,-0.20733135731024666,0.07313735159896313
1782942157456100600,0.5891005859375,-0.15324877999424932,-0.19543730496950446,0.04147752716168761
1782942157466085600,0.599085693359375,-0.1547626916885376,-0.1818909553770907,0.02896576304771006
1782942157476070700,0.609070556640625,-0.1968207952171564,-0.17953944208119063,0.059630292837321755
1782942157486055700,0.6190556640625,-0.2387006195694208,-0.15389060329543425,0.06297817849311978
1782942157496040700,0.629040771484375,-0.26227964807748794,-0.12466909365467727,0.07766125876419246
1782942157506025700,0.639025634765625,-0.2853594948917627,-0.12082037320411763,0.05345251751784235
1782942157516010800,0.6490107421875,-0.258066414296627,-0.12114774199496023,0.04101338024865836
1782942157525995800,0.658995849609375,-0.1953524762302637,-0.09962802063687703,0.02937967761084437
1782942157535980800,0.668980712890625,-0.13826982204914093,-0.08473969098413363,0.023739625897258518
1782942157545965600,0.678965576171875,-0.10409048907160759,-0.10437231995398179,0.035372780545800925
1782942157555950600,0.68895068359375,-0.05081073430478573,-0.13984680730858817,0.04962853878289461
1782942157565935600,0.698935546875,-0.0006038111120462417,-0.13919052622378802,0.049177762808091934
1782942157575920600,0.708920654296875,0.024793664994835853,-0.1278368643700611,0.03149009389355779
1782942157585905700,0.71890576171875,0.014898293924331665,-0.12517372784172184,0.03830233119167387
1782942157595890700,0.728890625,-0.0071019409596920005,-0.11438428487516938,0.04734886688049882
1782942157605875700,0.738875732421875,-0.03408347138762474,-0.08269952692603692,0.04816540742777288
1782942157615860700,0.74886083984375,-0.046214638686180115,-0.050675855878740544,0.03166950558107346
1782942157625845800,0.758845703125,-0.06784136408269405,-0.036572813118482005,0.03303505831323564
1782942157635830500,0.76883056640625,-0.09698270289301872,-0.016307859328156336,0.02747179816290736
1782942157645815600,0.778815673828125,-0.12067103699445723,-0.0184788740911521,0.0503771286604926
1782942157655800600,0.788800537109375,-0.1343143624216318,-0.03423573933988809,0.05266684703286737
1782942157665785900,0.798785888671875,-0.11506313398480415,-0.07287866413015871,0.06099456692785024
1782942157675771000,0.80877099609375,-0.059760933479666704,-0.0974629058917053,0.06259736248198897
1782942157685755600,0.818755615234375,-0.030532500907778738,-0.09615746758263558,0.07258205580376088
1782942157695741700,0.82874169921875,-0.05162964947223663,-0.09410516556217334,0.07711714195013046
1782942157705726700,0.838726806640625,-0.07607143228948116,-0.08068366619213484,0.06430716207455843
1782942157715711500,0.84871142578125,-0.07900456313192844,-0.06330247854404152,0.04678630109429359
1782942157725696800,0.85869677734375,-0.08360650396943092,-0.06729123765295371,0.020239728017523884
1782942157735681800,0.868681884765625,-0.08208323992490768,-0.08597071235012263,0.007930792999267577
1782942157745666800,0.878666748046875,-0.07278291213810444,-0.09910744909518397,0.0221057776177302
1782942157755651800,0.88865185546875,-0.06961188088655472,-0.1176017856169492,0.02872811836693436
1782942157765636600,0.89863671875,-0.08422083647549151,-0.09822698559937998,0.012944712171144783
1782942157775621600,0.90862158203125,-0.1002770682632923,-0.10388905734852887,-0.023044117913767693
1782942157785606700,0.918606689453125,-0.09684650929272175,-0.11494019259172492,-0.03739139035921544
1782942157795591700,0.928591796875,-0.1215530805259943,-0.13157036094311625,-0.0036725875655189153
1782942157805576700,0.93857666015625,-0.1723649838745594,-0.1379109073425643,0.00717869599033147
1782942157815561700,0.948561767578125,-0.1536561917513609,-0.14883536573247982,-0.02244812478199601
1782942157825546800,0.958546630859375,-0.07018880399167537,-0.15954634576849638,-0.02381046264376491
1782942157835531300,0.96853125,-0.10497954686582088,-0.16271489280201493,0.01307977326028049
1782942157845516300,0.978516357421875,-0.18138707924187183,-0.14114684792333282,0.04694335481952876
1782942157855501300,0.988501220703125,-0.19247195235788822,-0.11778574561541899,0.009854198809899389
1782942157865486300,0.998486328125,-0.17499007168114183,-0.11886107409619726,-0.03544474980346858
1782942157875471400,1.008471435546875,-0.20363748949468136,-0.12190636007622815,-0.021353169152140618
1782942157885456400,1.018456298828125,-0.2209983741402626,-0.1367836842777673,0.014854637445695698
1782942157895441400,1.02844140625,-0.17410101388692856,-0.16054684631424024,0.028611798510886726
1782942157905426200,1.03842626953125,-0.11966039864718914,-0.16351974291149526,-0.00040047055967152114
1782942157915411200,1.0484111328125,-0.0795505065768957,-0.13159538578651844,-0.056702093898318706
1782942157925396200,1.058396240234375,-0.06671849753260613,-0.09831499267639592,-0.09040683163404464
1782942157935381500,1.068381591796875,-0.06701309656500816,-0.09840519171049818,-0.07859883187524974
1782942157945366300,1.0783662109375,-0.058337622678279875,-0.10895294400881975,-0.06268226428646594
1782942157955351300,1.088351318359375,-0.01760170766413212,-0.10520464259227737,-0.05616444335766136
1782942157965336300,1.09833642578125,0.010842881053686141,-0.06566554071384016,-0.059000981957837935
1782942157975321300,1.1083212890625,0.0008779518783092498,-0.005236268672932055,-0.07438183523472398
1782942157985306400,1.118306396484375,0.00912497121989727,0.012215179762110347,-0.08793792076986283
1782942157995291100,1.128291015625,0.03649871583580971,0.026672395980102008,-0.06599566315077245
1782942158005276200,1.138276123046875,0.0341331557482481,0.018934908479673322,-0.012091492875292896
1782942158015261400,1.148261474609375,-0.010673369705677033,0.006370416381326504,0.04317315209843218
1782942158025246500,1.15824658203125,-0.061494625404477116,-0.022315607276395893,0.0858611875610426
1782942158035232300,1.168232177734375,-0.10608137062788009,-0.03585680576965678,0.08532240450922399
1782942158045217300,1.17821728515625,-0.12116671155691146,-0.021497911385074255,0.07808934798315167
1782942158055202300,1.188202392578125,-0.17250176199674605,0.007474387576343724,0.09461232049986719
1782942158065187300,1.198187255859375,-0.21970190458893774,0.03201638507327297,0.07443776667304336
1782942158075172400,1.20817236328125,-0.1667179178982973,0.028186727799498476,0.012722191994264722
1782942158085157400,1.218157470703125,-0.09642039283514023,0.014273570171708706,-0.003924078108556568
1782942158095142400,1.228142333984375,-0.060389294511079786,-0.019259085233008955,0.029168555610813197
1782942158105127400,1.23812744140625,-0.04305763595998287,-0.08015768782296218,0.05505911246426403
1782942158115112200,1.2481123046875,-0.012360299879312515,-0.14268804035019128,0.06527184238824993
1782942158125097200,1.25809716796875,0.0020540099203586576,-0.16470213936278597,0.028975772985070942
1782942158135082200,1.268082275390625,0.042104865279793735,-0.17286440303036943,0.03928874841313809
1782942158145067300,1.2780673828125,0.018742109870910642,-0.1568346756570041,0.09065890669897197
1782942158155052500,1.288052490234375,-0.019974282014369963,-0.12172815396510996,0.07957695619240403
1782942158165037300,1.298037353515625,-0.04765022444725037,-0.0902566460410133,0.03404438148625195
1782942158175022300,1.308022216796875,-0.06661562168002128,-0.11349961099512874,0.0019147110475227235
1782942158185007400,1.31800732421875,-0.10123977581560611,-0.1535715274089016,0.02544719700012356
1782942158194992400,1.327992431640625,-0.11667232274711131,-0.18433542591976002,0.06664419018737971
1782942158204977200,1.33797705078125,-0.11290683273375034,-0.1926657578969374,0.10492127733994275
1782942158214962200,1.347962158203125,-0.1323281570404768,-0.1505098108838778,0.13034662783443926
1782942158224947200,1.357947265625,-0.16312486184239386,-0.10199192762346938,0.10181845248639583
1782942158234932500,1.367932373046875,-0.17329671176671982,-0.06440447126945946,0.05173226959649473
1782942158244917500,1.37791748046875,-0.18157003459334373,-0.0670922992810607,0.035710268871858714
1782942158254902300,1.38790234375,-0.21085750387609004,-0.09416265876991674,0.06211235544402152
1782942158264887300,1.39788720703125,-0.21669278590083121,-0.11612054321640171,0.09175327780693769
1782942158274872300,1.407872314453125,-0.1822673692077398,-0.12884077158244325,0.09261351136546582
1782942158284857300,1.417857421875,-0.16247954967617986,-0.12721041216794401,0.09306421427503228
1782942158294842400,1.42784228515625,-0.2051905641555786,-0.10038673004969023,0.10843637278880923
1782942158304827100,1.4378271484375,-0.2029021609574556,-0.11566169353299774,0.0865356162238866
1782942158314812400,1.4478125,-0.1995791540145874,-0.1124657013701275,0.05613375595845282
1782942158324797400,1.45779736328125,-0.17053016966283321,-0.07609458940278273,0.04864657854083925
1782942158334782500,1.467782470703125,-0.09740881935060024,-0.007731005244003608,0.02197919209599495
1782942158344767200,1.477767333984375,-0.0160556472659111,0.0417969592412468,-0.076276891733706
1782942158354752300,1.487752197265625,0.05659633196890354,0.03642268232437782,-0.21515308217816054
1782942158364737300,1.4977373046875,0.13859130908846853,-0.018879122030182043,-0.31617329695895313
1782942158374722300,1.507722412109375,0.16821020228266714,-0.11405953729967586,-0.3047861529607326
1782942158384708400,1.517708251953125,0.19851298608779905,-0.201351387851499,-0.21728359140083192
1782942158394693400,1.527693359375,0.17994973991513252,-0.2530968091905117,-0.1194185527153313
1782942158404678400,1.537678466796875,0.1137666644334793,-0.26475666918288915,-0.07742766920402645
1782942158414663400,1.547663330078125,0.05682546454966068,-0.24653162372233345,-0.10986585760265588
1782942158424648200,1.557648193359375,-0.051308746954798694,-0.18219923587497322,-0.12194127612598239
1782942158434633200,1.56763330078125,-0.12550269493460656,-0.10911957841315306,-0.1064061456028372
1782942158444618200,1.5776181640625,-0.16317045454978943,-0.046297152170748444,-0.08450235683061182
1782942158454603500,1.587603515625,-0.18882804289758204,0.00571415013790247,-0.04655439203456044
1782942158464588300,1.59758837890625,-0.19529753117263315,0.0063778096699155865,0.0008932955779135227
1782942158474573300,1.6075732421875,-0.16012100385129452,0.0014216171720443525,0.015661898707970977
1782942158484558300,1.617558349609375,-0.08188450248241425,-0.008838504119956632,0.02969195843040943
1782942158494543400,1.62754345703125,-0.05189852954149246,-0.004487616575718857,0.06353383961450308
1782942158504528400,1.6375283203125,-0.04725508764982223,0.015957694183615968,0.11771865346226841
1782942158514513200,1.64751318359375,-0.06710311293601989,0.01988387976757949,0.13584928037133068
1782942158524498200,1.657498291015625,-0.10237199471592903,0.0033279148717818316,0.15116561704464257
1782942158534483500,1.6674833984375,-0.14027297856509685,-0.015501847024762537,0.19320479667708276
1782942158544468500,1.677468505859375,-0.20036942760944365,-0.0364377086468623,0.2206406467437744
1782942158554453200,1.687453369140625,-0.20951602613925932,-0.04420177819353994,0.21603432199209927
1782942158564438300,1.697438232421875,-0.20883213552832602,-0.06262203113236464,0.21719847040064633
1782942158574423300,1.70742333984375,-0.20123744261562823,-0.08783899044003338,0.20955730799771843
1782942158584408300,1.717408203125,-0.1516910291582346,-0.10077319948347285,0.21984218984246254
1782942158594393300,1.727393310546875,-0.08833703962266444,-0.10378364247898571,0.23827567215561865
1782942158604378000,1.737378173828125,-0.04693243156671524,-0.10490397914526983,0.25533381099496033
1782942158614363400,1.74736328125,-0.03377192122042179,-0.1095423064704053,0.25953582926206287
1782942158624348400,1.757348388671875,-0.04125380140841007,-0.09084670262234285,0.2465073477976024
1782942158634333400,1.76733349609375,-0.05725684170424938,-0.06799476911269593,0.23883323297314343
1782942158644318500,1.777318359375,-0.09797697462737559,-0.07083740409351885,0.25080402207821606
1782942158654303200,1.78730322265625,-0.1393938576430082,-0.057707996704964896,0.2701698898706585
1782942158664288300,1.797288330078125,-0.16835224110186098,-0.05747464460681658,0.2654124662104994
1782942158674273300,1.807273193359375,-0.21716098793447017,-0.07985862267799675,0.2230830714598298
1782942158684258300,1.81725830078125,-0.20527999600470065,-0.11113819735972211,0.20303316692598164
1782942158694243300,1.827243408203125,-0.193844994276762,-0.13592439143415538,0.1815234189726412
1782942158704228400,1.837228271484375,-0.17672434812784193,-0.1665868388645351,0.1582347517132759
1782942158714213400,1.84721337890625,-0.13556582378745077,-0.16838300156630576,0.15351890217252076
1782942158724198400,1.857198486328125,-0.10406886176168918,-0.16296061119139194,0.16771394319832325
1782942158734184200,1.86718408203125,-0.14918869094848633,-0.15938823259733617,0.18754998578578233
1782942158744169200,1.877169189453125,-0.16609832469522953,-0.11913043822264298,0.1339741706818342
1782942158754154200,1.887154296875,-0.12185936999619007,-0.09384313535881228,0.08578443253040313
1782942158764139500,1.897139404296875,-0.07346446466147899,-0.10545315572693943,0.09443279921449721
1782942158774124300,1.907124267578125,-0.08780044852793216,-0.10027404518914408,0.09859306069910526
1782942158784109300,1.917109375,-0.07007306865751743,-0.1256269332356285,0.11215075366944074
1782942158794094300,1.92709423828125,-0.020450082832574844,-0.15403532726205885,0.09836206495482475
1782942158804079400,1.937079345703125,0.0010860416710376738,-0.14853198060542344,0.0861184137251228
1782942158814064400,1.947064453125,-0.026548399707674978,-0.12376295686149968,0.07880436438471078
1782942158824049200,1.957049072265625,-0.026668226695060727,-0.11356894077113829,0.05975410188008099
1782942158834035000,1.967034912109375,0.003762567403912544,-0.11745876955022104,0.04897909843083471
1782942158844020000,1.97702001953125,-0.014441197806596756,-0.14139313256829045,0.08149528396911919
1782942158854004700,1.987004638671875,-0.08578443253040313,-0.13021100048972292,0.09480254584234207
1782942158863989800,1.99698974609375,-0.07438216402828693,-0.1207870554564055,0.038357897303812206
1782942158873974800,2.006974853515625,-0.05265022469162941,-0.11080847221501171,0.00793283882588148
1782942158883959800,2.016959716796875,-0.08316460542082786,-0.10613778612338937,0.007524477220699191
1782942158893945000,2.026945068359375,-0.1168342353105545,-0.10658828810355625,0.019910496063157916
1782942158903929900,2.036929931640625,-0.08864625170230865,-0.09082410719804465,-0.0015464987896382809
1782942158913915000,2.046914794921875,-0.0593470919817686,-0.09283010412505828,-0.009373941012285648
1782942158923900000,2.05689990234375,-0.06595569646656513,-0.10422493823939002,0.0045007820179685945
1782942158933885000,2.066885009765625,-0.08694529300332068,-0.10884492619023657,-0.000752352737262845
1782942158943870000,2.076869873046875,-0.06367313848733902,-0.1278306355586741,-0.04761025776304304
1782942158953854700,2.086854736328125,-0.04856733929216862,-0.17209522702246904,-0.08175141415465623
1782942158963839700,2.09683984375,-0.08016308551728725,-0.20860811751410363,-0.04951061149165034
1782942158973825000,2.106824951171875,-0.12029285133183001,-0.22562893828405067,-0.036408699464797974
1782942158983810000,2.11681005859375,-0.1338531746506691,-0.23160368357840924,-0.04720923921409994
1782942158993794800,2.126794921875,-0.18372575132250785,-0.19847871849201618,-0.04988956433925777
1782942159003779800,2.13677978515625,-0.21173253314495086,-0.16306608085986227,-0.07341068864762783
1782942159013764900,2.146764892578125,-0.2260346147418022,-0.14380343597987666,-0.08622585615497082
1782942159023750000,2.15675,-0.24073007957041262,-0.1231426330060698,-0.08955470831673591
1782942159033735000,2.16673486328125,-0.22389468010365962,-0.14208803776358253,-0.061803800951503216
1782942159043719700,2.1767197265625,-0.17666297332942485,-0.1639554309150204,-0.04914707540888339
1782942159053705000,2.186705078125,-0.12334464011788368,-0.1809751374401152,-0.06321859965287148
1782942159063691000,2.19669091796875,-0.05023147311210632,-0.2090298865901306,-0.08071005187556148
1782942159073675800,2.20667578125,0.020485154145956037,-0.24322058121189474,-0.07902082014698535
1782942159083660800,2.216660888671875,0.05677987184226513,-0.24751225052382794,-0.05176620839871466
1782942159093645800,2.226645751953125,0.037867666101455685,-0.2630878043889068,-0.040189496645145116
1782942159103630800,2.236630859375,0.0021381810724735257,-0.2559267719194293,-0.012291947350837289
1782942159113616000,2.246615966796875,-0.060059039643406864,-0.18779102800004183,-0.012176942669041454
1782942159123601000,2.256600830078125,-0.10686579900383948,-0.09554592982186004,-0.03045907034538686
1782942159133586000,2.2665859375,-0.1379179398715496,-0.03969911931231618,-0.032127441949024796
1782942159143571000,2.276571044921875,-0.15014672232568263,-0.028287361462647095,-0.01842891573589295
1782942159153556000,2.286555908203125,-0.1545446650236845,-0.03708139282828197,0.01946585756819695
1782942159163540700,2.296540771484375,-0.1360959851413965,-0.05357400673935189,0.057137526173517104
1782942159173525800,2.30652587890625,-0.08662029883265494,-0.0710541703830473,0.07711505959089845
1782942159183510800,2.3165107421875,-0.06374094302654267,-0.0839205931535922,0.09386636097077279
1782942159193495800,2.326495849609375,-0.05294540824592113,-0.08238428696440532,0.08548658209498972
1782942159203480800,2.336480712890625,-0.07009118883609772,-0.04700913179842755,0.06544730855301022
1782942159213465900,2.3464658203125,-0.14903203908205032,-0.017930227232445032,0.08154361662287264
1782942159223451000,2.356450927734375,-0.24095512049794196,-0.02430331506147049,0.10983184573519975
1782942159233436000,2.366435791015625,-0.30023791507184505,-0.00612177081592381,0.09000460750870407
1782942159243421000,2.3764208984375,-0.31307401576936245,0.016225249945465474,0.06023936464637518
1782942159253405700,2.38640576171875,-0.28730244565308094,0.04154657380990684,0.031642069584876295
1782942159263390700,2.396390625,-0.24267361485362052,0.03743048026058823,0.029960948097519573
1782942159273375700,2.406375732421875,-0.18335574896633625,0.011054505377216264,0.05876260662470013
1782942159283361000,2.416361083984375,-0.11070493877530098,-0.032740002623107285,0.06686426267884671
1782942159293346000,2.426345947265625,-0.05135317061841488,-0.0892329107501544,0.06157196495700627
1782942159303330800,2.436330810546875,0.008079846081137657,-0.10412829119819215,0.039036892543919385
1782942159313315800,2.44631591796875,0.033007366588711735,-0.11209137903186492,0.009031447717547415
1782942159323300900,2.45630078125,0.11506196494102477,-0.0959231930358801,-0.009643734396994114
1782942159333286000,2.466285888671875,0.04995557878017425,-0.08901635452318005,0.021975575366802513
1782942159343270700,2.476270751953125,-0.011796236255764961,-0.06888193177734502,0.04405592628233135
1782942159353255700,2.486255615234375,-0.06940788274705409,-0.0395011307884939,0.06304664061944931
1782942159363241000,2.496240966796875,-0.1089607254564762,0.027085018201870842,0.02950125816389918
1782942159373226000,2.50622607421875,-0.138017893114686,0.061084236238989974,0.016609920147806406
1782942159383211800,2.516211669921875,-0.1538251185774803,0.0341191911549773,0.04456690801177174
1782942159393196800,2.52619677734375,-0.13647826245725153,-0.006290852905670181,0.07550956062301993
1782942159403181800,2.536181884765625,-0.0647328766733408,-0.03916942374925129,0.10398363116364925
1782942159413166800,2.546166748046875,0.002163315513730049,-0.08215083440155722,0.11823957206383347
1782942159423151900,2.55615185546875,0.02435235096812248,-0.08872198381964116,0.13514701385349034
1782942159433137000,2.566136962890625,0.023897592937946317,-0.08959859312423504,0.12192388659976422
1782942159443122000,2.576121826171875,0.05132803617715835,-0.08776777010103687,0.1291160996587947
1782942159453107000,2.58610693359375,0.013179215046763419,-0.07027495703832246,0.15458496050145476
1782942159463092000,2.596092041015625,-0.0662228229701519,-0.007181719064479694,0.16528174761533737
1782942159473076700,2.60607666015625,-0.1436649590909481,0.019867177511239422,0.15763517838492988
1782942159483061800,2.616061767578125,-0.20743688177764413,0.02530745973587036,0.1386079679623246
1782942159493046800,2.626046875,-0.258280933830142,0.017273115030582993,0.11475808662362397
1782942159503032000,2.636031982421875,-0.25571546725630756,-0.01085913806874305,0.1166526681985706
1782942159513016800,2.646016845703125,-0.2245189494818449,-0.032356483198236675,0.11227690079975873
1782942159523001900,2.656001953125,-0.16210487114489078,-0.029938416605303064,0.11856778110489248
1782942159532987000,2.66598681640625,-0.10282675274610519,-0.02437396001173183,0.09661675565745681
1782942159542972000,2.675971923828125,-0.05690963570177555,-0.03548272545998916,0.054342013703472906
1782942159552957000,2.68595703125,-0.043916298615932464,-0.03836132223675959,0.04699281998444348
1782942159562941700,2.695941650390625,-0.029153029248118398,-0.015950086265895516,0.05130600700844079
1782942159572926700,2.7059267578125,-0.034500235494971276,0.020612926977779715,0.06484466648474335
1782942159582912000,2.715912109375,-0.07698796261250972,0.016076169464131818,0.08507774556577205
1782942159592897000,2.72589697265625,-0.13851298315525054,-0.026559925748687235,0.10895951988007872
1782942159602881800,2.7358818359375,-0.16239888565540314,-0.06962347999280319,0.11454725688453762
1782942159612866800,2.74586669921875,-0.17174831328094003,-0.07078108906270936,0.11814064173400401
1782942159622851800,2.755851806640625,-0.1481564252912998,-0.034248626220924776,0.10150719458013772
1782942159632836900,2.7658369140625,-0.08326163605451584,-0.019489631169429047,0.0691824764933437
1782942159642822000,2.77582177734375,-0.04245674745738506,-0.00336596016860567,0.046717546707019206
1782942159652806700,2.785806640625,-0.008992869272828101,0.011009670721646398,0.02568692404013127
1782942159662792000,2.7957919921875,0.024587913289666176,0.012122015877719968,0.0022066066661849616
1782942159672777000,2.80577685546875,0.06903086612820625,-0.025762089901883153,-0.02510755324959755
1782942159682762800,2.8157626953125,0.08165829251110553,-0.05763979487353935,-0.01685183914490044
1782942159692747800,2.825747802734375,0.05213759899437427,-0.06936557797528803,0.01701163281649351
1782942159702732800,2.83573291015625,0.0017564882785081862,-0.10649407961461692,0.024891791607066987
1782942159712717800,2.8457177734375,0.0010445406168699263,-0.14350010565174742,-0.003868840789981186
1782942159722703000,2.855703125,-0.06015256314575672,-0.11928250524550675,-0.00910363617092371
1782942159732688000,2.86568798828125,-0.13429507319927214,-0.10902677643001078,-0.018881189548037944
1782942159742673000,2.8756728515625,-0.1614811862885952,-0.10223262277785689,-0.03626954672243446
1782942159752658000,2.885657958984375,-0.14043372208476065,-0.11406623190194368,-0.021042093908973037
1782942159762643000,2.895642822265625,-0.14096505248248575,-0.13726493758922442,0.007227065176703035
1782942159772627700,2.905627685546875,-0.15035890377163885,-0.17504046842781826,0.038691111313551664
1782942159782612700,2.91561279296875,-0.15261574278771878,-0.20890017752954734,0.039443975507467983
1782942159792597800,2.92559765625,-0.13401158008277417,-0.22995224484326315,0.0454969554034993
1782942159802583000,2.9355830078125,-0.13759119213521478,-0.23685975920939817,0.05259137064386159
1782942159812568000,2.945568115234375,-0.14218962584137915,-0.22472583369817584,0.06491616081837565
1782942159822552800,2.955552734375,-0.1395563547283411,-0.23037969474140554,0.04858319444842636
1782942159832537900,2.965537841796875,-0.13127718668282032,-0.21342788408705962,0.02821257006023079
1782942159842522600,2.975522705078125,-0.13183306699991226,-0.20299500860637051,0.030901845676824448
1782942159852507600,2.985507568359375,-0.15959668771624563,-0.20759963459130376,0.04314001701381057
1782942159862492700,2.99549267578125,-0.16573475207984448,-0.21196084374180063,0.05415741438418627
1782942159872477400,3.0054775390625,-0.15623568685054778,-0.21957482587685806,0.05324420852940529
1782942159882462500,3.01546240234375,-0.1620686307877302,-0.19101563433604313,0.04291245533563196
1782942159892447700,3.02544775390625,-0.15991817475557327,-0.16307262019850313,0.030100539231300353
1782942159902432800,3.035432861328125,-0.15532558626830578,-0.1522778526028618,0.06669157299306243
1782942159912417500,3.04541748046875,-0.1202151099205017,-0.15747050760881975,0.05710252792537212
1782942159922402600,3.055402587890625,-0.11481588122546672,-0.14781999641116708,0.05743851841408759
1782942159932387600,3.0653876953125,-0.13677110792398453,-0.11988005101354791,0.05350746257547289
1782942159942372600,3.07537255859375,-0.1348860248297453,-0.11659242591131477,0.032319859248586
1782942159952357600,3.085357666015625,-0.15672960784733295,-0.12794532058006153,0.03654047261830419
1782942159962342400,3.09534228515625,-0.19550328287780283,-0.12504057558188214,0.046461087727919216
1782942159972328700,3.10532861328125,-0.22359540489614008,-0.12312796515990047,0.0400908220436424
1782942159982313700,3.115313720703125,-0.2126414646834135,-0.10404957253932952,0.012636303809098899
1782942159992298500,3.125298583984375,-0.17008301041722296,-0.06219433463905006,-0.010680274370498954
1782942160002283500,3.135283447265625,-0.1330389356583357,-0.023330679770186543,-0.028277999979257583
1782942160012268500,3.1452685546875,-0.08884382010102272,-0.04232035292768851,-0.01447882640324533
1782942160022253600,3.155253662109375,-0.042540334087610245,-0.08194405064992606,0.0020022432005032897
1782942160032238800,3.16523876953125,-0.019407295781373977,-0.1389403599881567,0.025184271747618912
1782942160042223600,3.1752236328125,0.014170564171671866,-0.16354025597656144,0.04327325147204101
1782942160052208600,3.185208740234375,0.061789224436879155,-0.17953533216165377,0.024154709504172204
1782942160062193700,3.195193603515625,0.064523617836833,-0.18049022173369303,0.01099679297376424
1782942160072178700,3.2051787109375,0.01898410193324089,-0.12603285628855226,0.018360636272653937
1782942160082163500,3.21516357421875,-0.017431027272343635,-0.08291965421643108,-0.03082063366677612
1782942160092148500,3.2251484375,-0.0309960267663002,-0.06857289322763681,-0.06990706444084643
1782942160102133500,3.235133544921875,-0.09077975659966468,-0.05346519433632493,-0.04848367959670722
1782942160112118800,3.245118896484375,-0.1391682321935892,-0.02521011857492849,-0.024415917723625898
1782942160122103800,3.255103759765625,-0.12576280717551708,-0.016342720578983425,-0.01277275313772261
1782942160132088600,3.265088623046875,-0.10380290430188178,-0.03498284964645281,0.006690145288407803
1782942160142073600,3.275073486328125,-0.07670739210546017,-0.052590676524117586,0.03590359948687255
1782942160152058600,3.28505859375,-0.033227146819233895,-0.07262861662553623,0.07588920759037136
1782942160162043600,3.295043701171875,-0.022755437165498733,-0.06386767467875033,0.0626569471821189
1782942160172028400,3.3050283203125,-0.0060416182518005365,-0.046079047874081874,0.04575542367659509
1782942160182013400,3.315013427734375,-0.012920271849632263,-0.05358911297693848,0.04528875601291656
1782942160191998700,3.324998779296875,-0.07320669050812721,-0.04980690929079428,0.03837375246006995
1782942160201983700,3.334983642578125,-0.1182546235024929,-0.07767895881766453,0.06546970304790883
1782942160211968800,3.34496875,-0.2027472626566887,-0.09023394101886079,0.07237721741404383
1782942160221953500,3.35495361328125,-0.22984043676555155,-0.10380622877012938,0.02865746428351849
1782942160231938600,3.3649384765625,-0.2292190899968147,-0.13047489385660738,0.011006839443743229
1782942160241923600,3.374923583984375,-0.21033084965348242,-0.16193146907305345,0.0381573697630316
1782942160251908600,3.38490869140625,-0.16445990983843803,-0.1947641366819851,0.06935027080830186
1782942160261894700,3.394894775390625,-0.08533376615345478,-0.208670971883554,0.06889164032060653
1782942160271879700,3.404879638671875,-0.04882102179229259,-0.22912344760261474,0.06024078941848129
1782942160281864700,3.41486474609375,-0.04302899438738823,-0.2731471703820862,0.05596680189371109
1782942160291849700,3.424849609375,0.009456395131349563,-0.3194359154840931,0.08648856221176683
1782942160301834500,3.43483447265625,-0.006399345648288726,-0.32788485060594974,0.09534063477441668
1782942160311819500,3.444819580078125,-0.02734568756520748,-0.30405807614820074,0.11992204525806009
1782942160321804500,3.454804443359375,-0.08150339421033859,-0.2691255319168791,0.12494359974712133
1782942160331789600,3.46478955078125,-0.08693243352174758,-0.22090492370314896,0.052698411214910444
1782942160341774600,3.474774658203125,-0.08351005785763263,-0.16402202987782658,0.0223704199032858
1782942160351759600,3.484759521484375,-0.11169745694398879,-0.12733678762712516,0.026827070518583056
1782942160361744600,3.49474462890625,-0.14663374576866625,-0.11344208125476725,0.06961217314749955
1782942160371729700,3.504729736328125,-0.18639175566136837,-0.11446452877083793,0.08741207026485354
1782942160381714700,3.514714599609375,-0.25035481700599194,-0.1116964157643728,0.11127320364993065
1782942160391699500,3.524699462890625,-0.2714233239978552,-0.058322863500565286,0.11350209521315992
1782942160401684500,3.5346845703125,-0.2550269004702568,0.036251645739562806,0.09124342858865857
1782942160411669500,3.54466943359375,-0.2542775434076786,0.12171814402774907,0.07607742363885045
1782942160421654800,3.55465478515625,-0.25105916588306426,0.1682598501106724,0.0751279408942908
1782942160431639600,3.5646396484375,-0.26776363244652746,0.16194350657071918,0.06924465500935911
1782942160441624600,3.57462451171875,-0.2758317880898714,0.16369338244535028,0.014995616818964481
1782942160451609600,3.584609619140625,-0.22147008330523965,0.12775402665850705,-0.023118644454702734
1782942160461594600,3.5945947265625,-0.18020517598092556,0.08845609942506999,-0.025545762003771958
1782942160471579600,3.60457958984375,-0.08868599919080734,0.0790573344987817,-0.039208668914251024
1782942160481564400,3.614564453125,0.030517303338646887,0.0780087113618385,-0.038624147024564445
1782942160491549400,3.624549560546875,0.12795710234940053,0.05533597947715316,-0.038990678782016036
1782942160501534700,3.63453466796875,0.2076736131429672,0.029126789695164187,-0.06455046931114047
1782942160511519700,3.644519775390625,0.24546119974553585,-0.0058588546965736895,-0.06971972517520189
1782942160521505500,3.654505615234375,0.24108956053256986,-0.03249299645894207,-0.07090491637177765
1782942160531490600,3.664490478515625,0.22512042250633238,-0.024616079938225448,-0.0739255428345874
1782942160541475600,3.6744755859375,0.1696153929054737,-0.040279019825812425,-0.06885605755057185
1782942160551460600,3.684460693359375,0.05990823299586773,-0.07327354519926012,-0.061064125032722946
1782942160561445600,3.694445556640625,-0.06248246739804744,-0.08785210564993322,-0.061192171859182416
1782942160571430700,3.7044306640625,-0.13165946399867534,-0.1043660180773586,-0.0619947569463402
1782942160581415700,3.714415771484375,-0.20296704288721085,-0.11471477720486,-0.07083079168964176
1782942160591400700,3.724400634765625,-0.22884850311875343,-0.1294915088424459,-0.0378866630628705
1782942160601385500,3.734385498046875,-0.2427098552107811,-0.16426833278909325,-0.005799114732816815
1782942160611370500,3.74437060546875,-0.22377251502871512,-0.1527532698285766,-0.0009081643534824251
1782942160621355500,3.75435546875,-0.18431085773408412,-0.11663564399853348,-0.009376461762934923
1782942160631340500,3.764340576171875,-0.1469546482861042,-0.10765111329578794,-0.03192676827777177
1782942160641325800,3.774325927734375,-0.1441840145289898,-0.07928100545313209,-0.020129984032735228
1782942160651310600,3.784310546875,-0.17077099268138407,-0.08049073743592015,-0.020855229567363857
1782942160661295600,3.794295654296875,-0.18946458723545073,-0.09725765651003457,-0.04490315422881394
1782942160671280600,3.80428076171875,-0.2125274829149246,-0.11976962204216979,-0.03259487679768353
1782942160681265700,3.814265625,-0.23842881689071654,-0.136660030498635,-0.011795542136020958
1782942160691250700,3.824250732421875,-0.22673311839997767,-0.1514584442450665,0.022218407679349184
1782942160701235500,3.8342353515625,-0.2301397119730711,-0.1570439344935119,0.04259400050360709
1782942160711220500,3.844220458984375,-0.24913725790977476,-0.1270007697389461,0.06080145550854504
1782942160721205800,3.854205810546875,-0.2760930693745613,-0.08225325359641573,0.07386646959111094
1782942160731190800,3.864190673828125,-0.282070974740386,-0.019188643495435826,0.04625456883776933
1782942160741175600,3.874175537109375,-0.26807459809184075,0.029618582666944712,-0.0003016863603144884
1782942160751160600,3.88416064453125,-0.2589589792221784,0.041019499462191016,-0.014602233587205408
1782942160761145600,3.8941455078125,-0.22180735243558883,0.027388517493358813,-0.005022723532840609
1782942160771130600,3.904130615234375,-0.14001052823662757,-0.020756157673639242,0.01099361463598907
1782942160781115600,3.91411572265625,-0.06313537834882736,-0.05051287473621778,-0.005816065867617726
1782942160791101700,3.924101806640625,-0.010332593443989754,-0.09767939818659797,-0.0036634544109925625
1782942160801086700,3.934086669921875,0.016873393389582634,-0.1268127820193302,0.007940145349502563
1782942160811071700,3.94407177734375,0.0073977090358734125,-0.12134533779313787,-0.02219137354195118
1782942160821056500,3.954056396484375,0.02959258970916271,-0.08588584707826376,-0.04925674632843584
1782942160831041500,3.96404150390625,0.0336146848320961,-0.05239193451504688,-0.07585289416797458
1782942160841027000,3.974027099609375,0.0371305839985609,-0.02303632276637945,-0.07800671120099723
1782942160851012000,3.98401220703125,0.06593582272231578,0.002651829683035612,-0.07919763801861554
1782942160860996900,3.993996826171875,0.11690087080597877,0.017846104029391425,-0.08250584925115108
1782942160870982000,4.00398193359375,0.12402034742236137,0.012278944022080395,-0.0686808105815202
1782942160880967000,4.013966796875,0.14951660772860048,0.002451071530103218,-0.05074201645012945
1782942160890952000,4.023951904296875,0.12777823865115642,-0.04686004675051663,0.009912979792430996
1782942160900937000,4.03393701171875,0.05801321302950382,-0.08293388367118314,0.0757679192982614
1782942160910922000,4.043921875,-0.0460147321999073,-0.08289946994492783,0.12173351512681692
1782942160920907000,4.053906982421875,-0.12302315307855605,-0.070435088636633,0.13402699684761463
1782942160930892000,4.06389208984375,-0.21302140391170976,-0.0344860699723009,0.1315991851788014
1782942160940877000,4.073876953125,-0.333144159373641,-0.002152225580846425,0.15942911259699613
1782942160950861800,4.08386181640625,-0.39532852060794826,0.020438070451084058,0.13422135037593544
1782942160960846800,4.093846923828125,-0.36469022123813627,0.024051507141313048,0.09163242790624498
1782942160970832000,4.103831787109375,-0.3319832989007234,0.024051532257487997,0.08192622273229062
1782942160980817000,4.11381689453125,-0.28921207866668697,0.010105278360983357,0.09617810851186513
1782942160990802200,4.12380224609375,-0.23870588026642797,-0.019536146325431762,0.07217358460072427
1782942161000787000,4.133786865234375,-0.17470190238952635,-0.03868271794454194,0.0145609882613644
1782942161010772000,4.14377197265625,-0.14199498005211353,-0.06242491482479963,0.0054316331272944805
1782942161020757000,4.153757080078125,-0.12964520156681536,-0.09506344353454187,-0.008155651263706386
1782942161030742000,4.163741943359375,-0.1555506271958351,-0.11153591883988119,-0.004703720711544156
1782942161040726800,4.173726806640625,-0.16168869155943394,-0.11388043613941408,-0.02308722640313208
1782942161050711800,4.1837119140625,-0.20884031883478163,-0.08482923243110999,-0.015579517654143274
1782942161060698000,4.193697998046875,-0.2373673251390457,-0.051725077237305225,-0.017002864988148212
1782942161070683000,4.203682861328125,-0.23437749567329882,-0.009082657314976678,-0.04728953790869563
1782942161080668000,4.21366796875,-0.20279753153920171,-0.006783706465020077,-0.05383143383283168
1782942161090653000,4.22365283203125,-0.16205694034993648,-0.011275075625604949,-0.033405462528206406
1782942161100638000,4.233637939453125,-0.07515373292267322,-0.024094124723621643,-0.027455687278322875
1782942161110623000,4.243623046875,0.0391524452149868,-0.0409141896239249,-0.046205322868563235
1782942161120607700,4.253607666015625,0.15973346583843231,-0.052527214799891225,-0.0658576794521883
1782942161130593000,4.263593017578125,0.21326514953970907,-0.05891239949208684,-0.07049067301508039
1782942161140578000,4.273578125,0.24797815100252626,-0.05682884381683543,-0.07543499754946678
1782942161150563000,4.28356298828125,0.24344810635745523,-0.0579695382845588,-0.078352857757546
1782942161160548000,4.293548095703125,0.16617898871600628,-0.04705786631098017,-0.07643588168770074
1782942161170532900,4.303532958984375,0.05761982979774475,-0.04533566389456391,-0.06712777245324104
1782942161180518000,4.313517822265625,-0.02818739908635616,-0.047596603697026146,-0.051598815942555665
1782942161190503000,4.3235029296875,-0.08213175524175166,-0.038710482734302054,-0.04889310064781457
1782942161200488000,4.333488037109375,-0.1330903735846281,-0.014068864212732296,-0.02623619195334613
1782942161210473000,4.343472900390625,-0.1658165851444006,-0.007345217371877515,-0.015736534846760332
1782942161220458000,4.3534580078125,-0.22597148637771605,-0.0016089087740387184,-0.022349815506674347
1782942161230443000,4.363443115234375,-0.26717209629416466,0.01887649853154435,-0.023627324629202483
1782942161240428000,4.373427978515625,-0.3142354607641697,0.05534504413302056,-0.029851861699856815
1782942161250413000,4.3834130859375,-0.333750308573246,0.08279563511111773,-0.022671740937419235
1782942161260397800,4.393397705078125,-0.35247838991880415,0.08140926791979,-0.012705350457318127
1782942161270386000,4.403385986328125,-0.3416267410367727,0.028125126955506854,-0.008161094623804092
1782942161280371000,4.413370849609375,-0.3131231156080961,-0.030913714211131444,-0.011170980496890841
1782942161290356000,4.42335595703125,-0.2647013222664594,-0.08015326737617141,-0.02974211771506816
1782942161300341000,4.433341064453125,-0.1743739856094122,-0.11468090233472175,-0.0526772222964093
1782942161310325800,4.44332568359375,-0.09701309803128241,-0.16395159499011933,-0.0741341806165874
1782942161320310800,4.453310791015625,0.019362872117757796,-0.1895413422660902,-0.10012019720114768
1782942161330296000,4.463296142578125,0.1037280855000019,-0.19207283350508658,-0.11972447685934602
1782942161340281000,4.473281005859375,0.15007307256758212,-0.17962752222344278,-0.12853592515066264
1782942161350265900,4.483265869140625,0.19284779993295667,-0.14858614021176472,-0.1472780350215733
1782942161360251000,4.4932509765625,0.20454934364259242,-0.1401160435708705,-0.12164404674507677
1782942161370236000,4.50323583984375,0.1612532227516174,-0.13314404000062494,-0.07076192770451308
1782942161380221000,4.513220947265625,0.10007891534268855,-0.15829428161447867,-0.0170142631649971
1782942161390206000,4.5232060546875,0.042592941057682035,-0.18158740585325284,0.004636683357320726
1782942161400190700,4.533190673828125,-0.020310382100939748,-0.18909255731897429,0.03622450200431049
1782942161410176000,4.543176025390625,-0.08847907844185829,-0.16561596627207473,0.08519907039050012
1782942161420161000,4.5531611328125,-0.1856792234778404,-0.136318651448749,0.13460742708407342
1782942161430146000,4.56314599609375,-0.26183833405077456,-0.09044347385000437,0.13208291357513516
1782942161440131000,4.573131103515625,-0.2915864065825939,-0.04695188975243363,0.09965225089583546
1782942161450115800,4.58311572265625,-0.311720847594738,-0.030288700480852273,0.08686039119884371
1782942161460100900,4.593100830078125,-0.2884755810856819,-0.03901721059591509,0.1256130234412849
1782942161470086000,4.6030859375,-0.2575748313874006,-0.06274514605537988,0.15920754226818679
1782942161480071000,4.61307080078125,-0.22391981454491613,-0.09690552773727104,0.18050046913307158
1782942161490056000,4.623055908203125,-0.20622516790032386,-0.10978932176772505,0.17471655196938662
1782942161500042000,4.6330419921875,-0.16646365087628365,-0.114871776131168,0.16013221936505287
1782942161510027000,4.643027099609375,-0.17073182971477507,-0.1075333686676342,0.13264332393687217
1782942161520011800,4.65301171875,-0.15838029766380787,-0.09312756183482707,0.12590678222347051
1782942161529996800,4.662996826171875,-0.1390858146071434,-0.07314872237634845,0.10339702691473066
1782942161539981800,4.67298193359375,-0.12751871093213557,-0.06717390401675366,0.07665208172164857
1782942161549967000,4.682967041015625,-0.11127250953018665,-0.08976277984315528,0.06510134465955197
1782942161559952100,4.6929521484375,-0.08662906666100025,-0.14446022852133028,0.03687975104264915
1782942161569937000,4.70293701171875,-0.0311877499461174,-0.20230249629756433,0.032740130487270654
1782942161579922000,4.712921875,-0.011907295414805412,-0.21900924614965914,0.05762176602650433
1782942161589907000,4.722906982421875,-0.030466449934244154,-0.21224340527653693,0.06347578928433359
1782942161599892000,4.73289208984375,-0.056495794203877445,-0.20764243255341425,0.048613114662654694
1782942161609877000,4.742876953125,-0.10210837534368038,-0.18454013644531367,0.05304422897789627
1782942161619861800,4.75286181640625,-0.14189853394031524,-0.16143667129343375,0.07086648405753075
1782942161629847000,4.762846923828125,-0.17217910591363905,-0.12454750396846793,0.07948189832009375
1782942161639832000,4.77283203125,-0.21324293770790098,-0.0954153987773694,0.1086893611691892
1782942161649817000,4.782817138671875,-0.2412269231766462,-0.1195785929820966,0.12519151009358465
1782942161659801900,4.7928017578125,-0.21411913602054117,-0.14705180678395555,0.09867978913448751
1782942161669787000,4.802786865234375,-0.15729484051465986,-0.17328303030123934,0.08222418276555836
1782942161679772000,4.81277197265625,-0.11743044763803481,-0.18174835030231623,0.11483860451392829
1782942161689757000,4.8227568359375,-0.07336275785267353,-0.17434742639604955,0.11718136824779211
1782942161699742000,4.832741943359375,-0.030775077491998672,-0.16348757594125343,0.07768595481403172
1782942161709727000,4.84272705078125,-0.013728081101179122,-0.16330438312776385,0.06757547968812286
1782942161719712000,4.8527119140625,-0.00016015899777412413,-0.1499156443830114,0.077366513601318
1782942161729697000,4.862697021484375,-0.01267068100273609,-0.13636206133221276,0.08544409466013311
1782942161739682000,4.87268212890625,-0.05486088647842407,-0.13288183626732789,0.0969083955477923
1782942161749667800,4.882667724609375,-0.11355272942185402,-0.14021673659952358,0.10512041664123535
1782942161759652900,4.89265283203125,-0.15947569168508052,-0.13771357640586793,0.13970051243938506
1782942161769638100,4.90263818359375,-0.17516718181371688,-0.12229944191388785,0.12117387195006012
1782942161779623000,4.912622802734375,-0.19401333658099174,-0.09671437994618899,0.09113470751717687
1782942161789608000,4.92260791015625,-0.17536358116865158,-0.09863144734757952,0.10735117136798798
1782942161799593000,4.932593017578125,-0.15536942541003226,-0.09346213668459094,0.11581453687399625
1782942161809578000,4.942577880859375,-0.13647884697914123,-0.07575622886046766,0.10612784011811018
1782942161819563000,4.95256298828125,-0.11408698242902755,-0.08208614426804706,0.10492715909145772
1782942161829547800,4.9625478515625,-0.12095277654528618,-0.0894550290682353,0.1073606698486954
1782942161839532500,4.972532470703125,-0.18100246383845806,-0.06806099818274379,0.08786847226284444
1782942161849517600,4.982517578125,-0.15660393564105032,-0.03575530445682816,0.04160517212934792
1782942161859502600,4.992502685546875,-0.13883447019457817,-0.01714803647934459,0.029913346096128224
1782942161869487600,5.002487548828125,-0.1342716923236847,-0.00843007515775971,0.040407486777380104
1782942161879472400,5.012472412109375,-0.09648527476489543,-0.017181495790951885,0.03804638366922736
1782942161889457400,5.02245751953125,-0.04971007958650589,-0.05042421463865321,0.02465652154646814
1782942161899442700,5.032442626953125,-0.019292729490995406,-0.08023537443536333,0.04034026676006615
1782942161909427700,5.042427734375,0.03477554530501365,-0.0989474818936549,0.04237082273960113
1782942161919412700,5.052412841796875,0.08003565974533558,-0.10549193510105832,0.03692863168567419
1782942161929397500,5.0623974609375,0.10843991645276546,-0.08154674016172066,0.029030571912229058
1782942161939382500,5.072382568359375,0.1331283675074577,-0.028165780909592285,0.027892361662536856
1782942161949367600,5.082367431640625,0.08389818039238453,-0.0010780866934452205,0.01898505178131163
1782942161959352600,5.0923525390625,0.03866086230576038,-0.0014384901042096315,0.024368206124380228
1782942161969337300,5.10233740234375,-0.012715689188241957,0.01777214146074839,0.012198971837759018
1782942161979322600,5.112322509765625,-0.06482464661002159,0.025355153068806976,0.0019740034867078067
1782942161989307600,5.1223076171875,-0.11174246512949466,-0.004943621281487867,0.03482596031799912
1782942161999292700,5.132292724609375,-0.1458522400021553,-0.04981774121206253,0.07289930505938827
1782942162009278500,5.142278564453125,-0.16048048481345176,-0.06343079936513676,0.10179185674041509
1782942162019263500,5.152263427734375,-0.1586795728713274,-0.06735074928784743,0.09697875737026333
1782942162029248500,5.16224853515625,-0.12231003637313842,-0.05392817220557481,0.05308072506338358
1782942162039233800,5.17223388671875,-0.07409633282423018,-0.027306506332289426,0.02280409861281514
1782942162049218600,5.182218505859375,-0.04559913713634014,-0.03263819534960203,0.03989654158055782
1782942162059203600,5.19220361328125,-0.06616203269362449,-0.04601200138670392,0.054557008161023254
1782942162069188600,5.202188720703125,-0.0940817207545042,-0.056422829432366414,0.07473806479386985
1782942162079173600,5.212173583984375,-0.15715163265168666,-0.0838764434846118,0.08986819471269845
1782942162089158700,5.22215869140625,-0.1880155574709177,-0.10754933342174626,0.09245631150975823
1782942162099143400,5.232143310546875,-0.22085458175539968,-0.0883627403195016,0.09457856436073779
1782942162109128400,5.24212841796875,-0.23417174396812915,-0.09880885887425392,0.10287636404149234
1782942162119113700,5.25211376953125,-0.2358247718721628,-0.1442725330626592,0.10538286696970463
1782942162129098800,5.2620986328125,-0.19239245738089084,-0.18088629011288285,0.09761077166348694
1782942162139083500,5.27208349609375,-0.12112404145896434,-0.18975169708114117,0.05321363072805106
1782942162149068500,5.282068603515625,-0.03174713739454746,-0.19395451906584202,0.060885772791132324
1782942162159053600,5.292053466796875,0.009506664013862609,-0.19648204651577397,0.05463818363845348
1782942162169038600,5.30203857421875,0.039753333717584605,-0.17107669762969016,0.04501439605094492
1782942162179023600,5.312023681640625,0.023521745362877846,-0.15741751704625784,0.022755510230734945
1782942162189008400,5.32200830078125,-0.027942484414577484,-0.1543658013254404,0.04586655590087175
1782942162198993700,5.33199365234375,-0.12196166132688521,-0.14844961781790478,0.07977474378682672
1782942162208978700,5.341978759765625,-0.16853870358467102,-0.11775374304195865,0.07721578001901507
1782942162218963700,5.351963623046875,-0.17534370742440222,-0.07321377783603966,0.04991510063931345
1782942162228948500,5.361948486328125,-0.17586685451567172,-0.015029628686420618,0.04226685090847313
1782942162238933500,5.37193359375,-0.16078618976175785,0.01970020518018864,0.01990216662622988
1782942162248919600,5.38191943359375,-0.10659984154403208,0.05229104512357153,-0.00421849447786808
1782942162258904600,5.391904541015625,-0.033087446087598796,0.05790893067112192,-0.018958236839622257
1782942162268889600,5.4018896484375,0.04309621440470218,0.03167472974546254,0.0007030337028205394
1782942162278874600,5.41187451171875,0.11542553755640983,0.02976843946641311,0.02333389464057982
1782942162288859600,5.421859619140625,0.15461948382556437,0.03232889193841256,0.03902655381299555
1782942162298844700,5.4318447265625,0.2128197438597679,0.013041971133695915,0.04415924052633345
1782942162308829400,5.441829345703125,0.26436931383311746,-0.010414198179682716,0.07038651852086186
1782942162318814500,5.451814453125,0.26160803242623804,-0.026211742498679084,0.12051789225935935
1782942162328799500,5.461799560546875,0.22657120583653448,-0.022585414360836147,0.15055669136606156
1782942162338784500,5.471784423828125,0.2104243731558323,-0.005710139541421085,0.15675876087658105
1782942162348769800,5.481769775390625,0.1914618985325098,0.035354441171512006,0.12342881126999854
1782942162358754600,5.491754638671875,0.17544716779887676,0.059344954823609436,0.11505334324315189
1782942162368739600,5.501739501953125,0.11149170523881911,0.0591593508573249,0.12453143874965607
1782942162378724600,5.511724609375,0.06551321339607238,0.058404879228211935,0.1375080438964069
1782942162388709600,5.521709716796875,0.02713701325058937,0.04202239289442077,0.13171842764429748
1782942162398694400,5.5316943359375,-0.008671966755390167,-0.011959025602042674,0.13186543489955366
1782942162408679400,5.541679443359375,-0.08809446303844451,-0.07100629438702016,0.14156499113701282
1782942162418664400,5.55166455078125,-0.17222352957725523,-0.12360959293069317,0.17166823378205298
1782942162428649700,5.561649658203125,-0.23583880039751529,-0.1451646778631024,0.18315657313242553
1782942162438634800,5.571634765625,-0.3173801885306835,-0.11064557327087968,0.17140118034370241
1782942162448619500,5.58161962890625,-0.428031935814023,-0.027790179929696023,0.13767748217917977
1782942162458604500,5.5916044921875,-0.48228433500528334,0.045448038227856154,0.11517660429663955
1782942162468589600,5.601589599609375,-0.5121241774737835,0.06828775614332408,0.13087883501499892
1782942162478575400,5.611575439453125,-0.5413035102069378,0.058783466749638316,0.17258067245185374
1782942162488560600,5.621560546875,-0.5191629900693893,0.03473203495685011,0.20567323310598729
1782942162498545700,5.631545654296875,-0.4546750280678272,0.0008994695903733372,0.22054186254441738
1782942162508530700,5.64153076171875,-0.3563409105658531,-0.017101923182141036,0.2034184399165213
1782942162518515700,5.651515625,-0.2578600780695677,-0.033123905640468,0.18290230611041186
1782942162528500500,5.66150048828125,-0.17970365619957446,-0.017992825873568652,0.12781477126926183
1782942162538485500,5.671485595703125,-0.10969488494992255,-0.013693813505396247,0.08855733130984007
1782942162548470500,5.681470458984375,-0.07575520594716072,-0.03100826519336551,0.03967719974145293
1782942162558455600,5.69145556640625,-0.055365328869223594,-0.020640545637067405,-0.0029026626389473675
1782942162568440600,5.701440673828125,-0.02678746916055679,-0.03948677346957847,-0.04729826920442283
1782942162578425600,5.711425537109375,-0.01638648665547371,-0.08617103896150365,-0.05802826446816325
1782942162588410600,5.72141064453125,-0.003397241222858429,-0.11176169955292715,-0.10190477906297891
1782942162598395600,5.731395751953125,0.05057751007080078,-0.11435781699335201,-0.12063253161497413
1782942162608380700,5.741380615234375,0.10459025528728962,-0.1418813270771876,-0.14509933927562088
1782942162618365400,5.751365478515625,0.16427286283373832,-0.1365238916972652,-0.17612901258319616
1782942162628350500,5.7613505859375,0.19336802441477774,-0.1393157691718079,-0.1864958736229688
1782942162638335500,5.77133544921875,0.17721593103706837,-0.14008129191789775,-0.1755460615960881
1782942162648320800,5.78132080078125,0.1604395682811737,-0.11970882263248786,-0.18398637502007184
1782942162658305500,5.791305419921875,0.10133739097118377,-0.09333112158291042,-0.1817081278897822
1782942162668290600,5.80129052734375,0.013746785801649094,-0.08792420277176424,-0.16340550541467963
1782942162678275600,5.811275634765625,-0.1009305637359619,-0.09085380821656436,-0.12717450060434637
1782942162688260600,5.821260498046875,-0.20836510253846643,-0.09627561406958848,-0.101382179960981
1782942162698246400,5.831246337890625,-0.28711773673594,-0.07015132152549922,-0.1001264077462256
1782942162708231700,5.841231689453125,-0.31623627919256686,-0.035005974793713535,-0.12094452017359435
1782942162718216700,5.851216796875,-0.29750585975944993,-0.021277747562061994,-0.1195623085675761
1782942162728201700,5.86120166015625,-0.2595300571084022,-0.037756588676106186,-0.1144336039096117
1782942162738186500,5.8711865234375,-0.24428572622537612,-0.04518772505754605,-0.1272084759391844
1782942162748171500,5.881171630859375,-0.22411095320284366,-0.08717276334995404,-0.11706669235955923
1782942162758156500,5.891156494140625,-0.2001110689342022,-0.13556452687950804,-0.08487944651469588
1782942162768141600,5.9011416015625,-0.1968470987021923,-0.1445951526131481,-0.055213791569322344
1782942162778126600,5.911126708984375,-0.21626316231191156,-0.13524753335220738,-0.026077238531969485
1782942162788111600,5.921111572265625,-0.22687398817539214,-0.1204726100792177,-0.007149981352500617
1782942162798096600,5.9310966796875,-0.242217687779665,-0.07994436473269015,-0.015709354578889907
1782942162808081700,5.94108154296875,-0.22633739708065986,-0.03778263643281534,-0.00048500703796744345
1782942162818066700,5.951066650390625,-0.23441432055234906,-0.021700722214486448,0.012915851402841507
1782942162828051500,5.961051513671875,-0.2178565689831972,-0.053198031300120054,0.01780892067402601
1782942162838036700,5.97103662109375,-0.1593114410340786,-0.09693729284871369,0.041275428718328476
1782942162848021800,5.981021728515625,-0.08350830429196357,-0.11446860215775669,0.030673991737701
1782942162858007000,5.991007080078125,-0.024624153646826744,-0.09009789354903623,0.018186302619054913
1782942162867991800,6.00099169921875,0.027018939828872678,-0.07841668024137616,-0.0037571971090510485
1782942162877976800,6.010976806640625,0.08259586562216281,-0.09057020550221204,0.01967445881757885
1782942162887961900,6.0209619140625,0.06876783127784729,-0.09958691230835393,0.027137268978916107
1782942162897947000,6.03094677734375,0.04541735082864761,-0.09664625574657693,0.03517491988614201
1782942162907932700,6.0409326171875,0.028619945284724235,-0.1010712691145949,0.029115035325288773
1782942162917918000,6.05091796875,0.010180033230781555,-0.09560063741747289,0.009592333003319799
1782942162927903000,6.060903076171875,-0.016623802542686462,-0.09380074838865547,0.032768370201066134
1782942162937888000,6.070887939453125,-0.06828501619696617,-0.11295443473514169,0.07289839174393564
1782942162947872800,6.080872802734375,-0.10497194808125496,-0.11251785168247297,0.07774177665449679
1782942162957857800,6.09085791015625,-0.12319792512357235,-0.08588171889241784,0.08710344270709902
1782942162967842800,6.1008427734375,-0.14483458739221095,-0.055659233781881624,0.0911079291081056
1782942162977827800,6.110827880859375,-0.14928338349461553,-0.06157333493018523,0.10739705633632839
1782942162987812900,6.120812744140625,-0.1470364813506603,-0.07183574921479448,0.14036792683955282
1782942162997798000,6.1307978515625,-0.16533552362918852,-0.06825942509798333,0.13486512817218899
1782942163007783000,6.140782958984375,-0.1693885984122753,-0.04050146693745628,0.10466237067542969
1782942163017768000,6.150767822265625,-0.1601519835114479,-0.04183342792727053,0.07949092187676578
1782942163027753000,6.1607529296875,-0.1748614768654108,-0.029564952783565968,0.05384955401141196
1782942163037737700,6.17073779296875,-0.21356384022533892,-0.00810490745715797,0.033664149997010825
1782942163047722800,6.18072265625,-0.20162848775982856,-0.03642459115367382,0.043688188948482275
1782942163057707800,6.190707763671875,-0.19072773903906345,-0.052936658683884884,0.03710267307832837
1782942163067692800,6.20069287109375,-0.14123685516119003,-0.09430111739253624,0.035856764670461415
1782942163077678000,6.210677978515625,-0.09798340436816215,-0.11859397499207407,0.039661819509230554
1782942163087662800,6.220662841796875,-0.037193127840757366,-0.129736222584825,0.03462364267893135
1782942163097647900,6.23064794921875,0.010357143363356589,-0.14120616776198147,0.04188804419133812
1782942163107633000,6.2406328125,0.04410100753307342,-0.13257407635925336,0.049841633544303474
1782942163117618000,6.250617919921875,0.030227965003252026,-0.09667659608591347,0.03423267059996724
1782942163127603700,6.260603759765625,-0.010782090777158736,-0.09383092433121054,0.04628193176873028
1782942163137589000,6.270589111328125,-0.07728139260113238,-0.11693294644467532,0.06566643119640649
1782942163147574000,6.280573974609375,-0.14601649065315722,-0.136306522619538,0.04616608683671802
1782942163157559000,6.29055908203125,-0.18985913951098918,-0.1637249283610843,0.03188150436393916
1782942163167543800,6.300543701171875,-0.19470424145460127,-0.18858214184511451,0.05394008183907717
1782942163177528800,6.31052880859375,-0.23581834213137626,-0.15689429688975215,0.06289024448134005
1782942163187513900,6.320513916015625,-0.23580197551846502,-0.16723037919877096,0.052404287106543775
1782942163197499000,6.330498779296875,-0.22102350858151912,-0.1757381683683954,-0.0012216507494449615
1782942163207483600,6.340483642578125,-0.23223814555704592,-0.18432077633989974,0.00826524911802262
1782942163217469000,6.350468994140625,-0.15753040283620356,-0.15971348249632863,0.034136005292460324
1782942163227454000,6.360453857421875,-0.038542204362154005,-0.06910243352707475,0.0023992431614547967
1782942163237439000,6.37043896484375,0.05765490111112594,0.02085289147980511,-0.013372326466068625
1782942163247424000,6.380424072265625,0.07066928098499775,-0.038643125719670206,0.033283918507769704
1782942163257408800,6.39040869140625,-0.021886837637424467,-0.1253214566161856,0.04271430241502821
1782942163267393800,6.400393798828125,-0.02797521764039993,-0.18558332535531372,-0.0032386896602809427
1782942163277378800,6.41037890625,0.02990063274502754,-0.18400394720938057,-0.01588200773205608
1782942163287363800,6.42036376953125,-0.0010083002597093581,-0.1402626033015549,0.06294807561580092
1782942163297348900,6.430348876953125,-0.054958501634001726,-0.10301957190446555,0.1245836073283106
1782942163307334000,6.440333984375,-0.10955576874017715,-0.07534582142867148,0.09137180420868098
1782942163317319000,6.45031884765625,-0.12820786224007605,-0.08320751298079267,0.05651731191594153
1782942163327305000,6.460304931640625,-0.17213468225002287,-0.08426968058589845,0.05256393464766442
1782942163337289700,6.470289794921875,-0.19459552038311956,-0.05432878889571875,0.06004132132362574
1782942163347274800,6.480274658203125,-0.13221534431576729,-0.0439671885529533,0.08836111461799591
1782942163357259800,6.490259765625,-0.07752163109779357,-0.018913539181370287,0.09400865551829338
1782942163367245000,6.5002451171875,-0.06121697750687599,-0.02964782702773809,0.10586787400767207
1782942163377229800,6.510229736328125,-0.06967617829442024,-0.05696847148323431,0.09207947755400091
1782942163387214800,6.52021484375,-0.0744049603819847,-0.07517634661328047,0.07153265634868293
1782942163397200000,6.530199951171875,-0.09769289698898792,-0.08396390257235616,0.0165936996653676
1782942163407185000,6.540184814453125,-0.09762509244978428,-0.07982605384895577,-0.001654744937084615
1782942163417170000,6.550169921875,-0.08752513871788978,-0.0849808975951746,0.007040200835093855
1782942163427154700,6.56015478515625,-0.09837971020936966,-0.09341750295842066,0.023678433761931954
1782942163437139700,6.5701396484375,-0.1039940429598093,-0.10253792586736381,0.014760456356219946
1782942163447125000,6.580125,-0.111566524040699,-0.11771848906548693,-0.01328176210578531
1782942163457110000,6.590110107421875,-0.14911679475605488,-0.1149197069261223,0.0008633388310670852
1782942163467094800,6.6000947265625,-0.1542220089405775,-0.09088860553530975,-0.002066467543132603
1782942163477079800,6.610079833984375,-0.14496142864227293,-0.0643494668463245,0.0017453458299860358
1782942163487064800,6.62006494140625,-0.15063070645034313,-0.04664576011244207,0.023348325024731456
1782942163497049900,6.6300498046875,-0.18063596861362458,-0.025803262162487954,0.019537242303974925
1782942163507035000,6.640034912109375,-0.16640169155597687,-0.01891308252364397,-0.007995821059495211
1782942163517019600,6.65001953125,-0.10165946253240107,-0.018369002242200075,-0.020625475932098923
1782942163527005000,6.6600048828125,-0.08615443488657475,-0.04785424085306003,0.00943356224503368
1782942163536991000,6.669990966796875,-0.06547288138568401,-0.08126439782269299,0.04447006004117429
1782942163546975700,6.679975830078125,-0.033040099814534186,-0.10602914725029841,0.051525604575872415
1782942163556960800,6.689960693359375,-0.008300210833549499,-0.12789642167072743,0.027611023970507083
1782942163566945800,6.69994580078125,0.03450724975764751,-0.1187279035700485,-0.013446122354641555
1782942163576930800,6.709930908203125,0.044835167026519775,-0.10302611124310641,-0.023179726992174982
1782942163586916000,6.719916015625,0.04423486304581165,-0.08327546365046873,0.0033726182382553815
1782942163596900900,6.72990087890625,0.0014005144476890562,-0.07331754873776808,0.020481135557964443
1782942163606886000,6.739885986328125,-0.05765373206734657,-0.06099009168213233,0.010741758766770363
1782942163616871000,6.749870849609375,-0.1312654962450266,-0.08913184326216578,-0.027456235267594456
1782942163626856000,6.75985595703125,-0.16134908434152603,-0.08405916137406602,-0.07108714107088744
1782942163636840700,6.7698408203125,-0.1689747569143772,-0.07212327918559312,-0.06743994367495179
1782942163646825700,6.77982568359375,-0.17762100470662115,-0.04405501296687871,-0.05008939776029438
1782942163656810800,6.789810791015625,-0.14790624992251394,-0.03320073373634368,-0.03166088388320058
1782942163666796000,6.799796142578125,-0.136531453949213,-0.047259288900904355,-0.028328305394388735
1782942163676781000,6.809781005859375,-0.13678572097122668,-0.053623435371648515,-0.024687135880440473
1782942163686765800,6.819765869140625,-0.1376034670948982,-0.05731662733377888,-0.03077927874308079
1782942163696750800,6.829750732421875,-0.12389876686930655,-0.05529370667142793,-0.021190708599425852
1782942163706735900,6.83973583984375,-0.13251228143572807,-0.04059889942994341,0.02629161193501204
1782942163716721000,6.849720947265625,-0.13007716324329374,-0.026733309554215517,0.0259031606066972
1782942163726705700,6.85970556640625,-0.14246961182653903,-0.025068956538569182,0.015735183139890432
1782942163736692000,6.86969189453125,-0.16148644698560238,-0.02279065460935235,-0.006120638304762542
1782942163746677000,6.879677001953125,-0.1363672032982111,-0.023849917871318755,-0.007416486801579594
1782942163756662000,6.889662109375,-0.092090254676342,0.006482439088169485,0.00004161065202206373
1782942163766646800,6.899646728515625,-0.06651157678365707,0.038274675999768075,0.006278788008540868
1782942163776631800,6.9096318359375,-0.0579880785882473,0.043218269881792365,-0.008469941377267242
1782942163786616800,6.919616943359375,-0.08312661149799823,0.00478780053211376,-0.016359781311638653
1782942163796601900,6.929601806640625,-0.10526946972310543,-0.05541585348006338,-0.017080935193039475
1782942163806586600,6.939586669921875,-0.08727963952422141,-0.10858021997259928,0.022347952343150974
1782942163816572000,6.949572021484375,-0.09952478859126568,-0.12502627306189387,0.07088591941036283
1782942163826557000,6.959556884765625,-0.11971651274859904,-0.09789709605788811,0.07521941857002674
1782942163836541400,6.96954150390625,-0.09174012606441974,-0.0768365714430809,0.05107691096030175
1782942163846526500,6.9795263671875,-0.059871992638707155,-0.041271939853299404,0.012405308064818382
1782942163856511200,6.98951123046875,-0.04253215078115463,-0.007816701632924377,0.010184161416627466
1782942163866496300,6.999496337890625,-0.018473814323544502,-0.008881846646405756,0.019190182431973516
1782942163876481300,7.009481201171875,-0.019863222855329512,-0.04078316995566711,0.04965042182113975
1782942163886466300,7.01946630859375,-0.059552843686938285,-0.08377172273481265,0.10112305410075932
1782942163896451300,7.029451416015625,-0.08421849838793277,-0.09311841041399166,0.09888079159930348
1782942163906436000,7.03943603515625,-0.09290040201544761,-0.0690547949930653,0.06925634544715285
1782942163916421400,7.04942138671875,-0.06853869869709014,-0.08000838814591989,0.05125836847443133
1782942163926407400,7.059407470703125,-0.06852700825929642,-0.07601076987711712,0.05432126317638904
1782942163936392200,7.06939208984375,-0.06527998916208744,-0.05867885559769347,0.05424710196163505
1782942163946377200,7.079377197265625,-0.03638824119865894,-0.04298716453965753,0.03893149594068527
1782942163956362200,7.0893623046875,0.021154431709647176,-0.038454032888356596,0.01136551668830216
1782942163966347300,7.09934716796875,0.039997079345583914,-0.025843904700130222,-0.002405307576060295
1782942163976332500,7.10933251953125,0.07239420508146285,-0.0515997657906264,0.006099010994844139
1782942163986317300,7.1193173828125,0.058200844556093215,-0.07522875265395268,0.07494005363937467
1782942163996302300,7.12930224609375,-0.001835398733615875,-0.08596888571921736,0.11619663152676075
1782942164006287400,7.139287353515625,-0.08778057478368281,-0.08055113498680293,0.1335035940280184
1782942164016272400,7.1492724609375,-0.18687047908902168,-0.052344355346541846,0.12385971350055187
1782942164026257200,7.159257080078125,-0.26479659933447836,-0.004245601680502295,0.10881737146303057
1782942164036242200,7.1692421875,-0.32934476709067817,0.016204462885763497,0.10434756910521537
1782942164046227200,7.179227294921875,-0.3556523437798023,0.038065124902315436,0.11780611255001276
1782942164056212500,7.18921240234375,-0.3317389687508345,0.04845410644235089,0.11197419152613729
1782942164066197500,7.199197509765625,-0.2944102318316698,0.021799597745388744,0.08278229157235473
1782942164076182300,7.209182373046875,-0.2619412099033594,-0.018169497614726422,0.06623122547231614
1782942164086167300,7.219167236328125,-0.1893044282376766,-0.05313735062144696,0.03411525476537645
1782942164096152300,7.22915234375,-0.09911445422470569,-0.07244376157792284,0.00710544809103012
1782942164106137300,7.239137451171875,-0.04009469450116157,-0.07185576908951624,0.02494224315267056
1782942164116122400,7.249122314453125,0.017325813332200048,-0.08208912167642266,0.058717525373958045
1782942164126108400,7.2591083984375,-0.013692425265908241,-0.09686665703160688,0.09314495136104524
1782942164136093400,7.269093505859375,-0.1008218426644802,-0.1424479662503116,0.09084968003071844
1782942164146078500,7.279078369140625,-0.17182780825793742,-0.16215081091215833,0.043511042283289135
1782942164156063200,7.289063232421875,-0.18779928437173365,-0.153231682728976,0.0018557839345186948
1782942164166048300,7.29904833984375,-0.20837737749814986,-0.11465774978799745,-0.03355827846974134
1782942164176033300,7.309033203125,-0.1384101073026657,-0.0448157682063058,-0.14666534648332744
1782942164186018300,7.319018310546875,-0.054871407872438424,-0.06253885549409315,-0.10250764032695442
1782942164196003300,7.32900341796875,-0.0693511841237545,-0.15029190295003353,-0.015338731168210506
1782942164205988400,7.33898828125,-0.13196809155642986,-0.1610769163366407,-0.06403524979799985
1782942164215973400,7.348973388671875,-0.09259995776414871,-0.11089541984610259,-0.1748344792606309
1782942164225958400,7.35895849609375,-0.04209317484200001,-0.10269633129946887,-0.16039521768279372
1782942164235943400,7.368943359375,-0.05006196176409721,-0.14637887595845386,-0.08443663465064019
1782942164245928200,7.37892822265625,-0.045425534135103224,-0.2155147916300222,-0.02918484915848821
1782942164255913200,7.388913330078125,-0.06828267810940743,-0.21317073098821565,-0.011994864100404084
1782942164265898200,7.398898193359375,-0.1003249990582466,-0.17886470289109274,0.02858421638421714
1782942164275883500,7.408883544921875,-0.14535714996159077,-0.12365492990976198,0.03169434776138514
1782942164285868300,7.418868408203125,-0.19669570753276347,-0.10363408707361668,-0.04889437928944826
1782942164295853300,7.428853271484375,-0.13593757970929146,-0.09445037140380591,-0.06943641472179442
1782942164305838300,7.43883837890625,-0.07882862204313278,-0.037896837397012856,-0.007675320400856435
1782942164315823400,7.4488232421875,-0.06813304050564765,0.03533162655150517,0.07942815883886069
1782942164325809200,7.45880908203125,-0.09673954178690909,0.0326824089506641,0.13680183185581116
1782942164335794200,7.468794189453125,-0.02634440156817436,0.018088705729786304,0.06294687003940344
1782942164345779500,7.478779541015625,0.01646831972002983,0.00918384353397414,0.015982161904592066
1782942164355764500,7.488764404296875,0.020009937849640846,0.010590915586613119,0.04273761022537947
1782942164365749200,7.498749267578125,0.021858196064829825,0.002278849918488413,0.05413275486696511
1782942164375734300,7.508734375,0.011546060886979102,-0.03174921975377947,0.0250086594523862
1782942164385719300,7.51871923828125,-0.014671499431133269,-0.08099215675257146,0.030251382411457597
1782942164395704300,7.528704345703125,-0.06650397799909115,-0.09604134865598753,0.06067231270354241
1782942164405689300,7.538689453125,-0.08241934001147747,-0.06096822691019624,0.06562792581692338
1782942164415674000,7.548674072265625,-0.11460896047651767,-0.04973537842454388,0.054492783818393946
1782942164425659400,7.558659423828125,-0.1642471438705921,-0.06576395502043887,0.06459160503912717
1782942164435644400,7.56864453125,-0.19602058475017548,-0.064730867379345,0.050934543347544964
1782942164445629400,7.57862939453125,-0.2108329539567232,-0.053093822006974364,0.04054320545364171
1782942164455614200,7.5886142578125,-0.2346007830351591,-0.029796441718190906,0.027593561379052698
1782942164465599200,7.59859912109375,-0.21107085436582565,-0.01992503604516387,0.015064590401947497
1782942164475584300,7.608584228515625,-0.16524726082384586,-0.04045033953841776,0.020980390316992996
1782942164485569300,7.6185693359375,-0.25247195529043676,-0.08111649551829322,0.11018855021838098
1782942164495554300,7.62855419921875,-0.23247546144425868,-0.10383695270195603,0.04068246779385954
1782942164505539300,7.638539306640625,-0.10532090764939785,-0.10815720878755673,-0.05757208166588097
1782942164515524400,7.6485244140625,0.025390461844205854,-0.09542314369240776,-0.08481295714974403
1782942164525510400,7.658510498046875,0.01119067157804966,-0.05808932873932644,-0.11282463434301317
1782942164535495200,7.6684951171875,0.038644495692849154,-0.03588801832525059,0.004737732579000294
1782942164545480200,7.678480224609375,0.12534545854628085,-0.09924321343721822,0.12479540518177673
1782942164555465200,7.68846533203125,0.2324444817841053,-0.17063600465748457,0.13021395963178947
1782942164565450500,7.698450439453125,0.2331628591865301,-0.2054990455828607,0.22308281573150304
1782942164575435500,7.708435546875,0.08874152877032757,-0.11459182667862623,0.26705533804669973
1782942164585420300,7.718420166015625,-0.0006079027652740478,0.05651391438245773,0.11066270706877111
1782942164595405300,7.7284052734375,-0.039892449927330015,0.11013371475860476,-0.05711158801466226
1782942164605390300,7.738390380859375,-0.12660919487178324,0.0519102565119043,-0.04200812690705061
1782942164615375400,7.748375244140625,-0.23741350236833095,-0.002892506571114063,0.05617375917527824
1782942164625360100,7.758360107421875,-0.19412556478381157,0.030159977800957857,0.0803396111279726
1782942164635345200,7.76834521484375,-0.14565759421288965,0.07313254755968228,0.06540788985807448
1782942164645330400,7.778330322265625,-0.31174013681709767,0.00037064167698845266,0.02322535623218864
1782942164655315500,7.7883154296875,-0.5295400071769952,-0.22391729379426686,-0.05720123905949294
1782942164665300500,7.798300537109375,-0.5622089355915785,-0.3839445549475029,-0.09948288567829877
1782942164675285200,7.80828515625,-0.4131944321662187,-0.380286872690171,-0.04738974688015878
1782942164685270300,7.818270263671875,-0.2129074221432209,-0.24536336539424955,-0.005411905513517558
1782942164695255300,7.82825537109375,-0.03005319295823574,-0.09491669200761244,0.04600877738315612
1782942164705240300,7.838240234375,-0.013683072915673255,-0.045986876078601926,0.15287567236553876
1782942164715226400,7.848226318359375,-0.14480419225394725,-0.025865897336229682,0.1731548190779984
1782942164725211400,7.85821142578125,-0.24988193879723547,-0.01366380195962265,0.05439440147783607
1782942164735196400,7.868196533203125,-0.26436580670177934,-0.0486141558422707,-0.09090217740293592
1782942164745181400,7.878181396484375,-0.24837153423428535,-0.10247039532279595,-0.1635671622497961
1782942164755166200,7.888166259765625,-0.27087796507477757,-0.15873577830428257,-0.1121275189243257
1782942164765151200,7.898151123046875,-0.27752690156996246,-0.217065619534906,0.03193637635633349
1782942164775136300,7.90813623046875,-0.1550274801045656,-0.19491883405335247,0.0741220883199945
1782942164785121300,7.918121337890625,0.12444120318293571,-0.09329626946523785,0.0663207669192925
1782942164795106300,7.928106201171875,0.32770342962443827,-0.0017269881893880665,0.1191410144155845
1782942164805091300,7.93809130859375,0.3216881148576736,0.052403008464910084,0.17676453400775788
1782942164815076400,7.948076416015625,0.6854828485608101,0.049063580110203474,0.1285031919248402
1782942164825061400,7.958061279296875,-0.026292379119992253,-0.08922454478060826,0.15333779171826317
1782942164835046400,7.96804638671875,-0.255052619433403,-0.2075101296769455,0.19585352108757942
1782942164845031400,7.978031494140625,0.021095394998788833,-0.12774050045665353,-0.016023863888159393
1782942164855016700,7.9880166015625,-0.138144734364748,-0.000984718454722315,0.07326843063272535
1782942164865001700,7.998001708984375,-0.1464975521683693,0.07579555622385814,0.16876783616542815
1782942164874986800,8.00798681640625,0.09672375969588756,0.038554223593510684,0.10654964572675525
