time,seconds_elapsed,z,y,x
1782942182732369400,0.083369384765625,-0.23283318884074686,-0.1231395459998399,0.031833427438512446
1782942182742354400,0.0933544921875,-0.1640735408693552,-0.04758008182048797,0.09377152229417116
1782942182752339700,0.103339599609375,-0.15332652140557765,0.01829619273431599,0.17048823021724818
1782942182762324500,0.113324462890625,-0.23970073652267454,0.034122415158525106,0.17027677942365407
1782942182772309500,0.1233095703125,-0.2563601949006319,-0.013209025663137435,0.0724728598082438
1782942182782294500,0.13329443359375,-0.19091010986864565,-0.08189853100776671,-0.015379245841689407
1782942182792279600,0.143279541015625,-0.13458967223167417,-0.10790142566189169,-0.018436185726895926
1782942182802264600,0.1532646484375,-0.09407879814505576,-0.10644019400291144,0.03449157726448029
1782942182812249300,0.163249267578125,-0.12361468923091888,-0.10920067169219255,0.03972264631837606
1782942182822234400,0.173234375,-0.18192074772715566,-0.10897321961186826,0.06999693468138575
1782942182832219600,0.1832197265625,-0.08858020072877407,-0.08639942262358963,0.12267054024860262
1782942182842204700,0.19320458984375,-0.019771452918648718,-0.01247260114736855,0.18237327726762742
1782942182852189400,0.203189453125,-0.02404313888847828,0.061982774247601624,0.24910127328094095
1782942182862174000,0.213174072265625,-0.078884151622653,0.09080540249757468,0.24949882123116401
1782942182872159000,0.223158935546875,-0.05915536880195141,0.03464526998884976,0.19474256417099386
1782942182882144300,0.233144287109375,0.013612930288910864,-0.04025799530409276,0.15228979876898227
1782942182892129300,0.24312939453125,-0.02989069587290287,-0.10613047046661377,0.11297752334978431
1782942182902114000,0.253114013671875,-0.05234335069954395,-0.14849749381393193,0.06304912483748049
1782942182912099000,0.26309912109375,-0.041270168021321295,-0.1553723114868626,0.04555215618945658
1782942182922084000,0.273083984375,-0.04936579619348049,-0.12540507977902887,0.09074713297169655
1782942182932069000,0.283069091796875,-0.0868354028880596,-0.07073474743664264,0.14257486229930072
1782942182942054100,0.29305419921875,-0.07318857032954693,-0.029722828492708502,0.1605090533208102
1782942182952039000,0.303038818359375,-0.11589900028705596,-0.007099529806897043,0.15480017415471375
1782942182962024200,0.313024169921875,-0.18457447710633276,0.0027348683239892123,0.12107212860863655
1782942182972010200,0.32301025390625,-0.20285832181572913,0.02142685544285923,0.08285787755921482
1782942182981995000,0.3329951171875,-0.21323066274821756,0.020778036145307124,-0.005485920597799122
1782942182991980000,0.34297998046875,-0.20954583675563335,0.02188110201638192,-0.04801785218324512
1782942183001965000,0.352965087890625,-0.1901595837622881,-0.00922083280980587,-0.043825843853503466
1782942183011950000,0.3629501953125,-0.1728700107872486,-0.06279825534895062,-0.02809361985567957
1782942183021935000,0.37293505859375,-0.11413900487720965,-0.06717062521427869,-0.03327007264550775
1782942183031920000,0.382920166015625,-0.07912906629443169,-0.06539762419238686,-0.09090056996773928
1782942183041905200,0.3929052734375,-0.019386837515234946,-0.09572974368985741,-0.12691833388619125
1782942183051890200,0.40289013671875,-0.07322656425237656,-0.17353676760029046,-0.01942676766682416
1782942183061875200,0.412875244140625,-0.14443652798533438,-0.17124069255236535,-0.021033581808954475
1782942183071860000,0.42285986328125,-0.12692600573599339,-0.12332169763371348,-0.1409370319643989
1782942183081845000,0.432844970703125,-0.20650106223225592,-0.13604546053055672,-0.07945734840072691
1782942183091830000,0.442830078125,-0.24929566334187983,-0.16850724900048225,0.032488530346378684
1782942183101815300,0.452815185546875,-0.389763872218132,-0.1223456556757912,-0.027996625754609702
1782942183111800300,0.46280029296875,-0.48551615653336044,-0.03138984838947654,-0.017109942091815173
1782942183121785000,0.47278515625,-0.484955600041151,0.022065372542105614,-0.10456340381298214
1782942183131770000,0.48277001953125,-0.4246031304091215,-0.050945064741559326,-0.12859580211173743
1782942183141755100,0.492755126953125,-0.43400691857039925,-0.1398771111153066,-0.003298274360410869
1782942183151740200,0.502740234375,-0.3891623991936445,-0.18051223263610153,0.04575710417702794
1782942183161725000,0.512724853515625,-0.2899830630391836,-0.2211955772127956,0.09662983433473854
1782942183171710000,0.5227099609375,-0.2887900538623333,-0.2346431608721614,0.1080418570458889
1782942183181695200,0.5326953125,-0.24965514430403707,-0.2496194519361481,0.07749229540545492
1782942183191680300,0.54268017578125,-0.24118717568814754,-0.2942293588394299,0.09947294880617409
1782942183201665300,0.552665283203125,-0.27059973265528675,-0.3343956938046962,0.1705212922366336
1782942183211651000,0.562651123046875,-0.21142390558719634,-0.30819048151150347,0.1786223272362724
1782942183221636000,0.572635986328125,-0.1444312672883272,-0.25401074569765475,0.13890041157025843
1782942183231621000,0.58262109375,-0.1209562836766243,-0.24820297273434697,0.1212513576330617
1782942183241606000,0.59260595703125,-0.046129298490285874,-0.2885014461793005,0.11722758200969546
1782942183251591200,0.602591064453125,0.00530862780213356,-0.34019583145081994,0.122674485771358
1782942183261576200,0.612576171875,0.045048517516255375,-0.3685903339492157,0.12488887388519943
1782942183271561200,0.622561279296875,0.06970248177945614,-0.36715003548040986,0.11274806197546422
1782942183281546200,0.632546142578125,0.08512918349206447,-0.3642483226895332,0.11853044476918875
1782942183291531000,0.642531005859375,0.09090367524027824,-0.34891591166425495,0.20849932337738572
1782942183301516000,0.65251611328125,0.08776070103943348,-0.3643746890155598,0.23895963583178817
1782942183311501000,0.6625009765625,0.02062719296514988,-0.36848153981249776,0.17276103398744017
1782942183321486000,0.672486083984375,-0.12615151423215865,-0.34862690212242303,0.1333949460217729
1782942183331471000,0.68247119140625,-0.26363573886156083,-0.35235140253826974,0.1275079703424126
1782942183341456100,0.6924560546875,-0.37383623524606224,-0.3299694748602807,0.11176496922224759
1782942183351441200,0.702441162109375,-0.5025146376073361,-0.2964250970517285,0.10184307547099888
1782942183361426200,0.71242626953125,-0.5294634348094464,-0.2759117579909041,0.13486202289965002
1782942183371411200,0.7224111328125,-0.48203591320216654,-0.24407856801440939,0.12450352782942353
1782942183381396000,0.73239599609375,-0.4103764521360397,-0.19734091010112315,0.10540957231353967
1782942183391381000,0.742381103515625,-0.35358898150920864,-0.1801119995384477,0.10475578457992524
1782942183401366300,0.7523662109375,-0.2869096469432115,-0.15711378485932945,0.11314162787031382
1782942183411351300,0.762351318359375,-0.21191548849642275,-0.11004385365121998,0.0578753754613921
1782942183421336000,0.772336181640625,-0.12283259894251823,-0.04251268802885897,-0.03386639457084238
1782942183431321000,0.782321044921875,-0.046941783916950225,-0.04078695564821828,-0.07551215443890541
1782942183441306000,0.79230615234375,-0.0011561842978000641,-0.044533795760036445,-0.03784572826428339
1782942183451292200,0.802292236328125,0.06093932960927486,-0.027751450787927023,-0.02086631721695885
1782942183461277000,0.81227685546875,0.10150865588486194,0.030027871287311426,0.020037757438328117
1782942183471262200,0.82226220703125,0.08196808911263942,0.09480766954203136,0.03189275641031563
1782942183481247200,0.832247314453125,0.039458150163292884,0.1797218311770819,-0.041375546358246355
1782942183491232300,0.842232177734375,-0.008484335228800773,0.2303842978512868,-0.08795404992075637
1782942183501217000,0.852217041015625,-0.027118893072009084,0.276742801987566,-0.11172703009834513
1782942183511202000,0.8622021484375,-0.05714169089198112,0.34056028084903955,-0.12701213138317688
1782942183521187000,0.87218701171875,-0.030320903983712195,0.3853953748103231,-0.12308193406108767
1782942183531172000,0.882172119140625,0.0031949966490268707,0.410219215747714,-0.11980855667991563
1782942183541157000,0.8921572265625,0.06329962899982929,0.447343589201197,-0.12673150607720016
1782942183551142100,0.90214208984375,0.057847793334722515,0.49186654847338795,-0.10850313614839688
1782942183561127200,0.912127197265625,0.06092237847447395,0.5219220064539462,-0.1437326174996793
1782942183571112200,0.9221123046875,0.020614333483576774,0.5522780913488939,-0.16942697592759504
1782942183581097200,0.93209716796875,0.007555529946088791,0.5308477287746965,-0.1729111099826172
1782942183591082000,0.94208203125,0.05674655409455299,0.5071630114024505,-0.18085710055101661
1782942183601067000,0.95206689453125,0.0743657974153757,0.5248875782612711,-0.2063509862370789
1782942183611052000,0.962052001953125,0.11397066257297991,0.49958406404815614,-0.1551542848220095
1782942183621037000,0.972037109375,0.13963643422722816,0.5171879636693746,-0.1477922133550979
1782942183631022300,0.982022216796875,0.14104337841570377,0.5556659436888992,-0.20270375230852514
1782942183641007000,0.992007080078125,0.16295827310383318,0.552521435118094,-0.20033477642117067
1782942183650992000,1.0019921875,0.15991992832124233,0.5155610200546682,-0.17964189780866727
1782942183660977200,1.01197705078125,0.1763958468258381,0.4722899970723316,-0.1572789122931659
1782942183670962200,1.021962158203125,0.1718237166047096,0.41904469256438315,-0.16399610998528077
1782942183680947000,1.031947021484375,0.18376082263588905,0.3427800027251243,-0.16460284370677544
1782942183690933200,1.041933349609375,0.1928694272428751,0.26020074117789044,-0.16838424367532134
1782942183700918300,1.051918212890625,0.23501696262061594,0.21297997592277823,-0.1337918363848701
1782942183710903000,1.061903076171875,0.206933608430624,0.18793032687287778,-0.07004726749598048
1782942183720888000,1.07188818359375,0.1415700326383114,0.18297380044404415,-0.031862617000378665
1782942183730873000,1.081873046875,0.10346505064964294,0.17887518775248898,-0.07979262650338932
1782942183740858000,1.091858154296875,0.0576350273668766,0.17271264653475954,-0.12837682559881358
1782942183750843100,1.101843017578125,0.013944938722252845,0.1317880222817883,-0.05773624098533764
1782942183760828000,1.111827880859375,-0.05905015486180782,0.08390685688918456,0.006733856565970927
1782942183770813200,1.121813232421875,-0.0397188469260931,0.0500959553652443,-0.002967708965484053
1782942183780798200,1.131798095703125,-0.02177519395649433,0.0202415363821201,-0.025177732408978044
1782942183790783200,1.141783203125,-0.054310266858339305,-0.0025727182985283434,0.02451227250387892
1782942183800768300,1.151768310546875,-0.12397592375874518,-0.01663998649250716,0.06921170258782804
1782942183810753000,1.1617529296875,-0.13630465945601464,-0.01341954487496987,0.05326570797516033
1782942183820738000,1.171738037109375,-0.11865735908448695,-0.003910487974621356,0.0268860706968233
1782942183830723000,1.18172314453125,-0.15183540606498716,-0.01432228413466364,0.040225810067541896
1782942183840708000,1.1917080078125,-0.21668284902870655,-0.04852591130323708,0.10374050659015774
1782942183850693000,1.201693115234375,-0.23763035998940465,-0.0646586789259687,0.1276518357925117
1782942183860678000,1.211677978515625,-0.1796972264587879,-0.06713106038887054,0.09334125938443466
1782942183870663000,1.221662841796875,-0.16830547935068607,-0.06711431018346921,0.10339487149026244
1782942183880648000,1.23164794921875,-0.1501905614674091,-0.059099565227795386,0.127140050345473
1782942183890633200,1.24163330078125,-0.13044307394623755,-0.059361467566993086,0.11296630783602594
1782942183900618000,1.251617919921875,-0.08588204768598079,-0.0632591873915866,0.06598033771747723
1782942183910603000,1.26160302734375,-0.03190963447988033,-0.06285256108576431,0.05120601723268628
1782942183920588000,1.271588134765625,0.0012450316250324249,-0.057918027293030167,0.0739610708056949
1782942183930573800,1.28157373046875,0.005952770924568176,-0.05633126955823972,0.11145431410418823
1782942183940558800,1.291558837890625,0.032041151905059816,-0.060400729220546776,0.11886641699159517
1782942183950544000,1.3015439453125,0.03773965580761433,-0.08602096296632662,0.14528711693268268
1782942183960529200,1.311529052734375,-0.017047580912709234,-0.09675702264467254,0.18108824242576957
1782942183970514200,1.32151416015625,-0.057173255074024196,-0.08789715036805719,0.15751445634840056
1782942183980499000,1.3314990234375,-0.09130991795361042,-0.06712773592062295,0.1012274643233046
1782942183990484000,1.34148388671875,-0.14247370347976684,-0.043801951521262525,0.04952562639769167
1782942184000469000,1.351468994140625,-0.2020931826621294,-0.03416919517600909,0.03721517527578398
1782942184010454000,1.3614541015625,-0.21945056017637252,-0.007913220809958875,0.01960964995305985
1782942184020438800,1.371438720703125,-0.2071510505735874,0.01538715515350923,-0.013718637419398874
1782942184030423800,1.381423828125,-0.21102584618031978,0.0004985789055936039,0.032560298674646763
1782942184040409000,1.3914091796875,-0.21883038245141506,-0.03083590430114418,0.08895670589096843
1782942184050394000,1.40139404296875,-0.2211421665251255,-0.052269317348953334,0.07782757350811734
1782942184060379100,1.411379150390625,-0.18353811979591844,-0.03921933643873781,0.006736998371127992
1782942184070364000,1.421364013671875,-0.176491123893857,-0.024043796475604177,-0.019759744214545936
1782942184080349000,1.431348876953125,-0.1770920123964548,-0.014983013065718113,-0.04248599181817844
1782942184090334000,1.441333984375,-0.1726215889841318,-0.04046467859102413,0.03200670164618641
1782942184100319000,1.451319091796875,-0.1630751774817705,0.007011047805845737,-0.021622980803158134
1782942184110304000,1.461303955078125,-0.11385492723882197,0.05041461112666875,-0.0776206892917864
1782942184120289000,1.4712890625,-0.016717326045036316,0.06305338088748977,-0.07361978308735415
1782942184130274000,1.481274169921875,-0.03985445600450039,0.06635163698159158,-0.07438228275929577
1782942184140259000,1.491259033203125,-0.02165361340343952,0.030223763752169907,-0.06649442471945657
1782942184150244000,1.501244140625,0.04355214147865772,-0.014297204492334275,-0.09419043269283138
1782942184160230000,1.51122998046875,0.06761866124272346,-0.03425121090365574,-0.10163411802859044
1782942184170215000,1.52121484375,0.06581015051603317,-0.0010301467653363943,-0.0876855717102997
1782942184180200200,1.5312001953125,0.07105097377896308,0.02311544785061851,-0.04580455091479234
1782942184190185000,1.54118505859375,0.07525836234092712,0.03832187614236027,-0.02620461863814853
1782942184200170000,1.551169921875,0.029347090515494344,0.03923908231882378,-0.006467113654874265
1782942184210155000,1.561155029296875,-0.002793430110812187,0.015369729094672947,0.03760031126900576
1782942184220140000,1.57114013671875,-0.03328442996442318,0.015809600082971154,0.04945366627317853
1782942184230125000,1.581125,-0.04418167155385017,0.03622309549851343,0.016194946138747036
1782942184240109800,1.59110986328125,-0.08024491858184338,0.05367746711382642,0.042649767545145004
1782942184250094800,1.6010947265625,-0.09839783038794994,0.057022758953738956,0.05479058858803473
1782942184260080000,1.611080078125,-0.09222352566719054,0.05009253956545144,0.06527462800038046
1782942184270065200,1.621065185546875,-0.10211889673769474,0.0471667700455524,0.075307188185025
1782942184280050000,1.6310498046875,-0.14617840321660042,0.04516399712208658,0.08669494410459883
1782942184290035000,1.641034912109375,-0.1887649145334959,0.011283482694346456,0.06911230646711773
1782942184300020000,1.65102001953125,-0.23900047929883003,-0.04040692052179947,0.056877961921878155
1782942184310005000,1.6610048828125,-0.2874339630782604,-0.07315830305544659,0.04955665172361769
1782942184319990000,1.670989990234375,-0.3120487643748522,-0.07626887282403186,0.014380517127923667
1782942184329974800,1.680974853515625,-0.3065519205242395,-0.07193568419162183,-0.04078323388774879
1782942184339960000,1.6909599609375,-0.3240601046860218,-0.08454204952018335,-0.07180497048404068
1782942184349945000,1.700945068359375,-0.3566501226454973,-0.1027903297258541,-0.057422708923602475
1782942184359930000,1.71093017578125,-0.3066302464574575,-0.12384824225846677,-0.052279007625905795
1782942184369915100,1.7209150390625,-0.28040450283288954,-0.1378777722579427,-0.055511313211172815
1782942184379900000,1.73089990234375,-0.2549485745370388,-0.16810571899488566,-0.021530717676132915
1782942184389886000,1.740885986328125,-0.2096001972913742,-0.1704256133098155,-0.027466345669655126
1782942184399871000,1.75087109375,-0.14181553183197973,-0.12679300873978064,-0.059451072946051134
1782942184409856000,1.76085595703125,-0.1075450134396553,-0.07079113553268834,-0.07530144343082792
1782942184419841000,1.770841064453125,-0.10229600687026977,-0.026915168927144257,-0.054368819512007754
1782942184429826000,1.780825927734375,-0.11768997535705565,-0.011626158652175218,-0.023950939693534744
1782942184439811000,1.79081103515625,-0.06678688659369945,-0.006255936855915934,0.006066159038012847
1782942184449795800,1.8007958984375,-0.016038111609220505,-0.011688629429135471,0.014029822260420769
1782942184459780900,1.81078076171875,-0.007197218027710914,0.001081438561156392,0.0360904181627091
1782942184469766000,1.820765869140625,0.006262567526102066,0.023768084806762634,0.060692232113564386
1782942184479751000,1.8307509765625,-0.009326046749949454,0.032784645482432095,0.020177193308481944
1782942184489736200,1.840736083984375,-0.02104629516005516,0.02820749202631414,-0.011981904154131189
1782942184499721000,1.850720947265625,-0.042667759859561914,0.03166276531303301,-0.0040767570527736096
1782942184509706000,1.8607060546875,-0.0842173293441534,0.07414006236810236,0.011435942442854865
1782942184519691000,1.87069091796875,-0.11858487837016582,0.12745256862705573,-0.02068468617289327
1782942184529676000,1.880676025390625,-0.09906886151731013,0.17545414552893487,-0.06996469464590772
1782942184539661000,1.8906611328125,-0.1048217259556055,0.1781770494204946,-0.04893429117472842
1782942184549645800,1.900645751953125,-0.1380658239096403,0.15572052213633433,0.007989245188236236
1782942184559631000,1.910631103515625,-0.14702128378152846,0.1032663132071495,0.03404454588303342
1782942184569616100,1.9206162109375,-0.14801906264722348,0.04891134869055822,0.048700628549326205
1782942184579601200,1.93060107421875,-0.1358528240352869,0.009978793303947894,0.03362809230294078
1782942184589586000,1.9405859375,-0.09348843103647231,-0.012558982522878796,0.048792836877424264
1782942184599572000,1.950572021484375,-0.02888239561319351,-0.006615911008417606,0.030153895120043305
1782942184609557000,1.960556884765625,0.005296352842450142,0.004372826523054391,0.0338529870999977
1782942184619541800,1.970541748046875,0.008014964151382446,-0.00017795038279145954,0.06333541269926354
1782942184629527000,1.980527099609375,-0.03372632851302623,0.011254932453297077,0.055048992929048836
1782942184639512000,1.990511962890625,-0.07982172473371028,0.021076982559263706,0.01977205570684746
1782942184649497000,2.0004970703125,-0.10692892736792564,-0.0136695375806652,-0.004831493543367833
1782942184659482000,2.010482177734375,-0.14499942256510256,-0.05348450182499364,-0.010596651207655667
1782942184669467000,2.020466796875,-0.20826514929533005,-0.0885918546339497,0.024728947461862116
1782942184679452000,2.030451904296875,-0.1504880831092596,-0.0725558253839612,0.018151158240437507
1782942184689437000,2.04043701171875,-0.1959843443930149,-0.041872426497098054,0.053954457424301654
1782942184699422000,2.050421875,-0.34696284136772154,0.015483820461016148,0.0623252492760308
1782942184709407000,2.060406982421875,-0.405845822969079,-0.008538768829777837,0.0113290023365058
1782942184719392000,2.07039208984375,-0.4167424800366163,-0.04666030009444803,-0.025858755209390072
1782942184729377000,2.080376953125,-0.3612736907929182,-0.030879341584071514,-0.0412685423198156
1782942184739362000,2.090362060546875,-0.3059270666241646,0.027114965815562754,-0.03175873650079593
1782942184749347000,2.10034716796875,-0.2513093412518501,0.046988947526924306,-0.015715218064095825
1782942184759331800,2.110331787109375,-0.1746779369920492,0.02941418266864493,-0.020285448589082804
1782942184769316900,2.12031689453125,-0.16897709500193595,0.013883563923835754,-0.043544615759328005
1782942184779302000,2.130302001953125,-0.13023089250028133,-0.014021949481219053,-0.015556337707955389
1782942184789287200,2.140287109375,-0.11634791309833525,-0.026062059229146686,0.03142908442132175
1782942184799272000,2.15027197265625,-0.09799334124028682,-0.013057031705509871,0.054518995971884573
1782942184809257000,2.160257080078125,-0.059441200006008145,0.016121515576355158,0.08173342184023931
1782942184819243000,2.170242919921875,-0.03361936100721359,0.029936927901115268,0.08449311407823115
1782942184829228000,2.18022802734375,-0.04777355856597423,0.046109205550327895,0.06771799343135207
1782942184839212800,2.190212890625,-0.05867547633051872,0.055427653515711425,0.03897359978305176
1782942184849198000,2.200197998046875,-0.08191431309878826,0.0791937107621692,-0.017178404218144715
1782942184859183400,2.210183349609375,-0.09372223979234695,0.10813315205853431,-0.08405315175838768
1782942184869168600,2.220168701171875,-0.10506897871494293,0.11756739015700295,-0.10567878117635846
1782942184879153400,2.2301533203125,-0.1300631347179413,0.13215765931177884,-0.104413291285187
1782942184889138400,2.240138427734375,-0.14668167656362055,0.14247132885959,-0.11212576535865663
1782942184899123500,2.25012353515625,-0.12576982143819332,0.14147398838531225,-0.10229341305438429
1782942184909108500,2.2601083984375,-0.11105740547478199,0.14560889623295514,-0.09132124306522309
1782942184919093200,2.27009326171875,-0.11364099222719669,0.1495512406505644,-0.04968443368859589
1782942184929078300,2.280078369140625,-0.06340718102753162,0.09783349276976659,0.01937335697915405
1782942184939063300,2.290063232421875,-0.06434592318236827,0.047105048187263306,0.0785770219022408
1782942184949048600,2.300048583984375,-0.05259352606832981,0.02173723656628281,0.09802190974764526
1782942184959033600,2.31003369140625,-0.005062544086575508,0.010276716804597526,0.09052578183859586
1782942184969018400,2.320018310546875,0.04563303940594196,0.020622041865997014,0.07107554196463897
1782942184979003400,2.33000341796875,0.13377134158611298,0.07072196102030574,0.048202871627639976
1782942184988988400,2.339988525390625,0.2130120515614748,0.11487782227946444,0.04346028021043166
1782942184998973400,2.349973388671875,0.24847090295553206,0.12016633887533097,0.060711713132169096
1782942185008959200,2.359959228515625,0.2561556122392416,0.0997410251578316,0.07692578409649431
1782942185018944500,2.369944580078125,0.22133096709549427,0.08968677373118698,0.06043572746869176
1782942185028929500,2.379929443359375,0.19358663560152053,0.06651247183280065,0.03541658315490931
1782942185038914600,2.38991455078125,0.11449556322991847,0.04098988977521658,0.041794739884696896
1782942185048899300,2.3998994140625,0.008517068454623222,0.031600879057962446,0.08922350360099225
1782942185058884400,2.40988427734375,-0.11756488767266272,0.03919949922710657,0.11386237989291548
1782942185068869400,2.419869384765625,-0.19715864886939524,0.024380481084063647,0.08795450657848268
1782942185078854400,2.4298544921875,-0.24706921946406363,0.014971980215050279,0.03821907335501164
1782942185088839200,2.439839111328125,-0.25462767201960085,0.015983294415753333,-0.009375511914864182
1782942185098824400,2.449824462890625,-0.20490999364852905,0.023598865719698367,-0.005670337253995239
1782942185108809500,2.4598095703125,-0.19998656577169893,-0.009260671629849821,0.013677446892485021
1782942185118794500,2.46979443359375,-0.21274784766733645,-0.028301179925445466,0.04751538255382329
1782942185128779500,2.479779541015625,-0.24250234993994235,-0.03372077555507421,0.0332623277304694
1782942185138764300,2.489764404296875,-0.2612064658880234,-0.01749128782590851,0.015181385182030499
1782942185148749300,2.499749267578125,-0.24909458781182764,0.01302570498548448,0.004036342843994498
1782942185158734300,2.509734375,-0.2256511683821678,0.04358695706371218,0.024707484548725185
1782942185168719400,2.51971923828125,-0.19156126725375652,0.030478049040492623,0.05675557765122503
1782942185178704400,2.529704345703125,-0.1746785215139389,0.017941643675602973,0.08973949029911309
1782942185188689400,2.539689453125,-0.11411562400162219,-0.0016204956076107918,0.10939312552437186
1782942185198674400,2.54967431640625,-0.08466974928677082,-0.0004222257337532937,0.1257501668896526
1782942185208660500,2.559660400390625,-0.059353521722555154,0.0459330452658236,0.12614267333857715
1782942185218645200,2.569645263671875,-0.0185305129468441,0.0870037269259803,0.1161598431803286
1782942185228630300,2.57963037109375,0.01461480080783367,0.11289041132191195,0.11624313754960894
1782942185238615600,2.589615478515625,0.0644014527618885,0.11170300990194082,0.16075137417670338
1782942185248600600,2.5996005859375,0.08481354167163371,0.09850001212079078,0.20382775136977432
1782942185258585300,2.60958544921875,0.13010931194722652,0.12309579818965867,0.21132614430114627
1782942185268570400,2.6195703125,0.16598375840485094,0.13818912149574608,0.19254910924732685
1782942185278555400,2.629555419921875,0.1965980923771858,0.13410990762440486,0.16349855399299412
1782942185288540400,2.63954052734375,0.208479668828845,0.11934203514670952,0.16625720505136996
1782942185298525400,2.649525390625,0.20122224504649638,0.08656224850248545,0.22368783241994677
1782942185308510200,2.65951025390625,0.18047347152829168,0.05439551572268828,0.24404176140166817
1782942185318495500,2.66949560546875,0.09680734632611274,0.028963936416804788,0.25275690971165893
1782942185328480500,2.67948046875,-0.011143325304985045,-0.00270184283722192,0.2359577871346846
1782942185338465500,2.689465576171875,-0.08966799596548079,-0.019767123803403227,0.17800773900188505
1782942185348450300,2.6994501953125,-0.15841244636774063,-0.021780345055647195,0.15316727572325617
1782942185358435300,2.709435302734375,-0.2105202347457409,0.003885298734437674,0.10887282797731458
1782942185368420400,2.71942041015625,-0.2566261523604393,0.02138471506787464,0.07676880343649536
1782942185378405400,2.7294052734375,-0.282923207655549,0.015588952202768996,0.051703153099864715
1782942185388390400,2.739390380859375,-0.27367256422936914,-0.0010576466936152427,0.027018903296254573
1782942185398375400,2.74937548828125,-0.26017361570894715,-0.025667625684617085,0.04161945638302714
1782942185408361500,2.759361572265625,-0.2542687755793333,-0.03347713952492922,0.06599299626965076
1782942185418346500,2.769346435546875,-0.23280863892138004,-0.04769655694016255,0.09210084913559258
1782942185428331300,2.779331298828125,-0.19641747511327265,-0.06822976974523626,0.13019823233969507
1782942185438316300,2.78931640625,-0.16380699888765812,-0.042426544115366414,0.13120291587021202
1782942185448301300,2.79930126953125,-0.13585165499150753,-0.010636444361926987,0.14893570256810634
1782942185458286600,2.80928662109375,-0.10757423953413962,0.004768200782500207,0.14955946048963814
1782942185468271600,2.819271728515625,-0.05152502005398273,0.02270946086561307,0.10767061258070171
1782942185478256400,2.82925634765625,0.013895254361629486,0.04504425233309157,0.04229373891539871
1782942185488241400,2.839241455078125,0.031011808857321736,0.04664907544753514,0.005223543334566056
1782942185498226400,2.849226318359375,0.04087853835523128,0.013480015491088852,-0.011183547717519103
1782942185508211500,2.85921142578125,0.04209200579822063,-0.057675423309346656,-0.014567491067387162
1782942185518196200,2.8691962890625,0.059466334447264665,-0.1297420130047947,-0.03383793566133827
1782942185528181200,2.87918115234375,0.09283493556380272,-0.16314791392441838,-0.061496050176583224
1782942185538166500,2.88916650390625,0.0831020615786314,-0.18428860936965794,-0.08833758761193602
1782942185548151600,2.899151611328125,0.040944589328765865,-0.1813846132901497,-0.091480634878017
1782942185558136600,2.909136474609375,0.011937106031179428,-0.17530739400200546,-0.09633242229074239
1782942185568121300,2.919121337890625,-0.03480067974627018,-0.1376072482208721,-0.1093144707975909
1782942185578106400,2.9291064453125,-0.11360884352326392,-0.04603606724888086,-0.07493461027927696
1782942185588092400,2.939092529296875,-0.46501697386205193,0.009419191226386464,-0.06201210993994027
1782942185598077200,2.9490771484375,-0.3917430633366108,-0.11492848388762213,-0.07986081463508307
1782942185608062500,2.9590625,-0.21164134773015975,-0.16156404226645826,-0.05997413783892989
1782942185618047500,2.969047607421875,-0.273042449632287,-0.10828721010908483,0.06003116525579243
1782942185628032500,2.979032470703125,-0.253556827917695,-0.11986636041491291,0.1310205815732479
1782942185638017500,2.989017578125,-0.14757365696728228,-0.18728704226696863,0.09543580224458127
1782942185648002300,2.999002197265625,-0.11774842754602431,-0.1979852358866483,0.06225472305677831
1782942185657987300,3.0089873046875,-0.14891104305088518,-0.13245540928249247,0.044916890493221576
1782942185667972400,3.018972412109375,-0.15995850676596163,-0.08502438054387457,0.01064702968802303
1782942185677957400,3.028957275390625,-0.16670798102617262,-0.06803893248140812,-0.03646032005418092
1782942185687942400,3.0389423828125,-0.18269173209965228,-0.038053395648614964,-0.09555763852596283
1782942185697927400,3.048927490234375,-0.17880115440189837,-0.03192859490867704,-0.09220018132422118
1782942185707912400,3.058912353515625,-0.23227087878286837,-0.031782108243228864,-0.039586014326661825
1782942185717897500,3.0688974609375,-0.2310579958617687,-0.04126912684170529,-0.015086473440192639
1782942185727882500,3.078882568359375,-0.21732816119492052,-0.07233626434914767,0.0010320099288597703
1782942185737867300,3.0888671875,-0.24215748202502727,-0.10225269745150581,0.022933606743998823
1782942185747852300,3.098852294921875,-0.250602654287219,-0.14191991465506143,0.08241382358614355
1782942185757837300,3.10883740234375,-0.20278817918896674,-0.1548586994089186,0.11694741336144507
1782942185767823400,3.1188232421875,-0.11162380718588828,-0.11988724793931468,0.10981646550297737
1782942185777808400,3.128808349609375,-0.017532149559259413,-0.08120559857385233,0.08662965118288993
1782942185787793400,3.13879345703125,0.08021861509680747,-0.04668848957589362,0.08173581472672521
1782942185797778400,3.1487783203125,0.13414952724874019,-0.04444756964815315,0.06390088282860815
1782942185807763500,3.158763427734375,0.17313889085650444,-0.04579070505253039,0.04636266885474324
1782942185817748200,3.168748291015625,0.19944588302373886,-0.04962053357295226,0.041465288734622296
1782942185827733500,3.1787333984375,0.16522972516715526,-0.07636118618340697,0.05903663779310882
1782942185837718500,3.188718505859375,0.1067477255821228,-0.11901987225394696,0.10116769696008414
1782942185847703600,3.19870361328125,0.029095161581039426,-0.1457364864016883,0.1189378565263003
1782942185857688300,3.208688232421875,-0.12439327238798141,-0.15711024119537323,0.10804551030769943
1782942185867677400,3.218677490234375,-0.1808563333660364,-0.16714045415930448,0.05918941720202565
1782942185877662500,3.228662353515625,-0.22115794861614702,-0.12406086209584027,0.0316549290664494
1782942185887647700,3.238647705078125,-0.3027963673830032,-0.06116037934827618,0.029875059912353754
1782942185897632500,3.248632568359375,-0.32546763339638707,-0.021262403862457722,0.005048588626459241
1782942185907617500,3.258617431640625,-0.3218774999499321,-0.0011483389180619269,-0.01282587156444788
1782942185917602600,3.2686025390625,-0.30916414884924887,0.016638141595292835,-0.03481215098835528
1782942185927587600,3.278587646484375,-0.28640637359619137,0.045689774561859665,-0.04904025403354317
1782942185937572400,3.288572265625,-0.227485982593894,0.030842206177767364,-0.03273852305207401
1782942185947558700,3.29855859375,-0.1934007576406002,-0.02366261513829231,0.017474866414070128
1782942185957543700,3.308543701171875,-0.1704296318978071,-0.06310654954656493,0.042141580560989676
1782942185967528700,3.31852880859375,-0.13824527212977408,-0.07568265216760336,0.032970980101078746
1782942185977513500,3.328513427734375,-0.08064180894494057,-0.05410457908525131,-0.002253222286887467
1782942185987498500,3.33849853515625,-0.006283025792241096,0.00337625323375687,-0.009916413858532905
1782942185997483500,3.3484833984375,0.06116378601491451,0.053138473999453706,-0.007849471391364932
1782942186007468500,3.358468505859375,0.09475392092764377,0.06330837856186554,0.01765869854837656
1782942186017453300,3.368453369140625,0.10602116487324237,0.05380559613867662,0.020573709212243555
1782942186027438600,3.3784384765625,0.11094868440330027,0.03521361706187017,0.040302674696035684
1782942186037423600,3.388423583984375,0.08630699509978294,0.02053545956108719,0.045328576566651464
1782942186047408600,3.39840869140625,0.06499766508936881,0.02835270918328315,0.03379891882520169
1782942186057393700,3.4083935546875,0.048538113197684286,0.014768931923620401,0.04373663120009005
1782942186067378400,3.41837841796875,0.022878771284222603,-0.004992483658203855,0.055541014229692515
1782942186077363500,3.428363525390625,-0.051579380589723584,-0.025076482257898894,0.07505966143105179
1782942186087348500,3.438348388671875,-0.11626081933677196,-0.02598529506535269,0.05392638210728764
1782942186097333500,3.44833349609375,-0.17099544908702372,-0.031048250143881885,0.01306201840788126
1782942186107318500,3.458318603515625,-0.2141355026334524,-0.04155644674994983,-0.03149937317855656
1782942186117303600,3.468303466796875,-0.23433657914102077,-0.051311404702765864,-0.032044330242834984
1782942186127289600,3.47828955078125,-0.28744974516928196,-0.0607166359024588,-0.026638781404867768
1782942186137274600,3.488274658203125,-0.3032861967265606,-0.08381497735464945,-0.03008694909736514
1782942186147259400,3.49825927734375,-0.2959031007379293,-0.12905952889965847,-0.03991689024884253
1782942186157244400,3.508244384765625,-0.3140326316684484,-0.12499699216848238,-0.0064158583916723725
1782942186167229400,3.5182294921875,-0.29688568203449245,-0.11654402932547964,-0.008805347344093025
1782942186177214700,3.528214599609375,-0.2507476157158613,-0.11264423627480864,-0.0020511603761464354
1782942186187199500,3.538199462890625,-0.21353578317463398,-0.09848538080723955,0.021267646293155848
1782942186197184500,3.5481845703125,-0.18962357718944547,-0.08462837609676643,0.05594188664816319
1782942186207169500,3.55816943359375,-0.18488018205463885,-0.059716610280750315,0.07638250753264873
1782942186217154600,3.568154541015625,-0.15903379313647747,-0.019272919678827747,0.024732728587836025
1782942186227139600,3.5781396484375,-0.07260463296175003,0.0003192037506960332,-0.020902137449011204
1782942186237124400,3.588124267578125,-0.03486263906657695,0.01475926904613152,-0.012883118177019058
1782942186247109400,3.598109375,-0.028343466430902478,-0.007367861886881291,0.011215221497416496
1782942186257094700,3.6080947265625,-0.00817336958348751,-0.02228319827755913,0.034170747812278565
1782942186267079700,3.61807958984375,-0.007532149070501327,-0.012048548782709985,0.01675254348888993
1782942186277064400,3.628064453125,-0.0009083470165729522,0.0018367321741767227,0.012292385742254554
1782942186287049500,3.638049560546875,-0.013083937978744506,0.025199697645613924,0.015209259569644928
1782942186297035500,3.648035400390625,-0.03566752570867538,0.017127139821788297,0.021607801500335335
1782942186307020500,3.6580205078125,-0.03575052781701088,-0.008206659931736067,0.024069990362785756
1782942186317005600,3.668005615234375,-0.03553776184916496,-0.033239905836107204,0.046359052125550804
1782942186326990600,3.677990478515625,-0.008156418448686599,-0.04797389431050978,0.05418923429455608
1782942186336975600,3.6879755859375,0.007743161472678184,-0.0355834184886422,0.06029602673705667
1782942186346960600,3.697960693359375,0.007059270861744881,-0.029410145814344285,0.06022829526308924
1782942186356945400,3.7079453125,0.0013408932149410247,-0.001017433414235711,0.06135284231361001
1782942186366930400,3.717930419921875,-0.04524842400252819,0.011565505372965707,0.07275255353245884
1782942186376915500,3.72791552734375,-0.10759352875649929,0.028122453224519266,0.05616502787955105
1782942186386900500,3.737900390625,-0.11161620840132236,0.02493918354590423,0.012875555925071239
1782942186396885800,3.7478857421875,-0.11794658046662806,0.018714911336731165,0.009836699685826898
1782942186406870500,3.75787060546875,-0.1474292800605297,0.0016110975916031748,0.043080505378916854
1782942186416855600,3.76785546875,-0.16611995200514793,-0.020818349889386443,0.09750943018086254
1782942186426840600,3.777840576171875,-0.16518120985031126,-0.04065094014443457,0.0809694334641099
1782942186436825600,3.78782568359375,-0.15720482414364814,-0.044593284562043846,0.045877515686303376
1782942186446810400,3.797810302734375,-0.1613590212136507,-0.03335708420868032,0.03946158422939479
1782942186456795400,3.80779541015625,-0.16075637914538382,-0.03250495175821706,0.038158210013248026
1782942186466781700,3.81778173828125,-0.13415420342385767,-0.032809944320470096,0.04285926384367048
1782942186476766500,3.827766357421875,-0.11445756930708885,-0.03797405821853317,0.03095317400526255
1782942186486751500,3.83775146484375,-0.10150456423163413,-0.022622668498149142,0.026583799814619124
1782942186496736500,3.847736572265625,-0.0867266818165779,-0.01116432242724113,0.00507200603466481
1782942186506721500,3.857721435546875,-0.09958324078023433,-0.0007750394931063055,0.018417882885225115
1782942186516706600,3.86770654296875,-0.08513795132040977,0.010536427186708898,-0.0026193156529217957
1782942186526691300,3.87769140625,-0.08443067983388901,0.018574452553270383,0.01806293196771294
1782942186536676600,3.887676513671875,-0.12650105832219122,0.017282120320945976,0.058349641909636554
1782942186546661600,3.89766162109375,-0.13622574900090695,0.03891529372455552,0.03946925607919693
1782942186556646700,3.907646728515625,-0.095092943623662,0.06090930893034674,0.016221834145672617
1782942186566631700,3.917631591796875,-0.06883388225138187,0.06679632114232517,0.02634378051366657
1782942186576616400,3.927616455078125,-0.07017945164144039,0.04062980602486059,0.05761150036081671
1782942186586601500,3.9376015625,-0.026534955704212188,0.020035099690360946,0.059473604438267644
1782942186596586500,3.94758642578125,-0.015543606090545654,0.005111726123699918,0.06404248325638473
1782942186606571500,3.957571533203125,-0.033146482798457146,0.02471956771216355,0.06103263391591608
1782942186616556500,3.967556640625,-0.05867664537429809,0.06039923138320446,0.016208390142209827
1782942186626541600,3.97754150390625,-0.09362287107110023,0.08021881602620705,0.011101166663691401
1782942186636526600,3.987526611328125,-0.16176467940509318,0.07963035774691961,0.05847158778887242
1782942186646510600,3.997510498046875,-0.17983108197152614,0.058988213807810094,0.021860643750242888
1782942186656496600,4.00749658203125,-0.16071254000365734,0.020462156862858683,-0.018292831733450293
1782942186666481400,4.0174814453125,-0.1194090542346239,0.003409516182541847,-0.006000519056431949
1782942186676466400,4.027466552734375,-0.06134674136638641,-0.022227787429047748,-0.0016358575735241174
1782942186686451500,4.037451416015625,-0.004227846828103066,-0.05162909234981052,0.019057167169451713
1782942186696436700,4.047436767578125,0.006578793868422508,-0.08753306629601866,0.03159841310624033
1782942186706421500,4.05742138671875,-0.0026198271095752715,-0.1155271073678974,0.02818151733484119
1782942186716406500,4.067406494140625,-0.04332826959490776,-0.1236367731985636,0.03411401265636086
1782942186726391600,4.0773916015625,-0.0837771843612194,-0.09242528618383221,0.04475008255895227
1782942186736376600,4.08737646484375,-0.13798165275752544,-0.01957968407305889,0.026193412257544693
1782942186746361600,4.097361572265625,-0.18060089730024337,0.06931172889620066,-0.007362199331074953
1782942186756346400,4.107346435546875,-0.21323650796711444,0.11085818397509865,-0.058982825246639545
1782942186766331400,4.117331298828125,-0.18726386232078074,0.103985969251208,-0.06693579354509711
1782942186776316700,4.127316650390625,-0.15883388665020465,0.07732623638985678,-0.014797171637415885
1782942186786301700,4.1373017578125,-0.14579203424751758,0.02421164558948949,0.03897774623520672
1782942186796286500,4.147286376953125,-0.1575993764191866,-0.043196021517366165,0.049474736460670826
1782942186806271500,4.157271484375,-0.16287351742982864,-0.10747792128650471,0.06718439801130444
1782942186816256500,4.167256591796875,-0.15791969441473483,-0.1482702061303891,0.06787216107975691
1782942186826242600,4.17724267578125,-0.1530623175114393,-0.12088761148774065,0.08539119542911648
1782942186836227300,4.187227294921875,-0.15499474687874315,-0.07915114112892188,0.09119736095722764
1782942186846212600,4.197212646484375,-0.14120587550103664,-0.023636256854329258,0.06407726230882108
1782942186856197600,4.20719775390625,-0.14591010766923426,0.01401497175116092,0.016924977446347474
1782942186866178000,4.217177978515625,-0.13976736713051796,0.024418794667301697,-0.019872429075092075
1782942186876163000,4.2271630859375,-0.13898352327644825,0.016983621431561187,-0.03553893089294433
1782942186886148000,4.237148193359375,-0.11650281139910221,-0.006510669668810442,-0.0493820532085374
1782942186896132900,4.2471328125,-0.11050210967957973,-0.031506122579751536,-0.0768568470461294
1782942186906118000,4.257117919921875,-0.097793434754014,-0.06214428495224565,-0.0857213772315532
1782942186916103000,4.26710302734375,-0.09410919328331947,-0.0997420298048295,-0.07986461402736604
1782942186926088200,4.277088134765625,-0.09781623110771179,-0.1228006694342941,-0.08662256385497748
1782942186936073000,4.287072998046875,-0.12196166132688521,-0.14282186846346592,-0.10405161836594343
1782942186946058000,4.29705810546875,-0.15680910282433033,-0.15727832777127623,-0.1298979342188686
1782942186956043000,4.30704296875,-0.18254326353967187,-0.16703125816378742,-0.1324139721604064
1782942186966028000,4.317028076171875,-0.1763467469871044,-0.13770918335854074,-0.14998780543692408
1782942186976013000,4.327012939453125,-0.16253624829947946,-0.09193375807353295,-0.15802454302869737
1782942186985999000,4.3369990234375,-0.15575930151045322,-0.06269107778058387,-0.12911430956050754
1782942186995984100,4.346984130859375,-0.16340426330566404,-0.04839582778331823,-0.08687157017998397
1782942187005969200,4.35696923828125,-0.14243863216638564,-0.03918374453554861,-0.08523501848671584
1782942187015954000,4.366953857421875,-0.08709668417274952,-0.032114171475498006,-0.09125818776637315
1782942187025940000,4.37693994140625,-0.043667292290925974,-0.025879231741838156,-0.07396412127930671
1782942187035925000,4.386925048828125,0.0025029227316379545,-0.03690745190032758,-0.04675137591138482
1782942187045909800,4.39690966796875,0.05381751490533351,-0.06183556606294587,-0.024837540669180452
1782942187055895000,4.40689501953125,0.08456687343418598,-0.06662355839130468,-0.003236351572722196
1782942187065880000,4.416880126953125,0.06589256810247898,-0.056503466053679584,0.01029233449883759
1782942187075865000,4.426864990234375,0.018194412860274314,-0.05225567241609096,0.02759940659794956
1782942187085850000,4.43685009765625,-0.0290004690349102,-0.023529179750662297,0.05456756608765572
1782942187095835000,4.4468349609375,-0.08731587988138198,0.03613664105776697,0.056562393166683614
1782942187105820000,4.45681982421875,-0.1058329488247633,0.09068323742263018,0.05213701447248459
1782942187115805000,4.466804931640625,-0.07323474755883216,0.10617167012668215,0.0549178042974323
1782942187125790000,4.4767900390625,-0.06594692863821983,0.07580054292622954,0.07238613137286155
1782942187135776000,4.48677587890625,-0.06235270353853702,0.04842045076792128,0.10381576378345489
1782942187145761000,4.496760986328125,-0.05634791016578674,0.02079023803975433,0.10759933744277804
1782942187155746000,4.50674609375,-0.07295593061745166,0.004541844680719077,0.12447737047486006
1782942187165731000,4.51673095703125,-0.1015150856256485,0.0043093693654052915,0.12560513239577412
1782942187175715800,4.5267158203125,-0.1429670399546623,0.02864492446235381,0.14953476443979888
1782942187185700900,4.536700927734375,-0.17340075666308402,0.07118417170457542,0.14093330563735215
1782942187195686100,4.54668603515625,-0.20081366424560546,0.11868052076436579,0.10642795557584613
1782942187205671200,4.556671142578125,-0.23253332911133764,0.13291212180773726,0.12502225447390228
1782942187215656000,4.566656005859375,-0.2566302440136671,0.0984496975725051,0.12833013691287487
1782942187225641000,4.576640869140625,-0.2237695924192667,0.05134917029673233,0.11328425121139735
1782942187235626000,4.5866259765625,-0.18314941273927687,0.0031755338967312126,0.11819295644313096
1782942187245611000,4.596611083984375,-0.17761340592205524,-0.02911838719299994,0.1114321570713073
1782942187255596000,4.606595947265625,-0.13072890515029428,-0.053371844363911077,0.09009458734709769
1782942187265580800,4.616580810546875,-0.06403612658083438,-0.055503403899352995,0.038317492228187616
1782942187275566000,4.626566162109375,-0.034088732084631916,-0.05455894438978284,0.010759988543204962
1782942187285551000,4.636551025390625,-0.021496961537003517,-0.037141050593648105,-0.005975092354230583
1782942187295537000,4.646536865234375,0.04020750722587108,-0.04393895797231234,-0.010353891960345208
1782942187305522000,4.65652197265625,0.05046411282420158,-0.07283454186064191,0.0056050169328227635
1782942187315507000,4.6665068359375,0.024666239222884176,-0.10105650080372579,0.022101905160211027
1782942187325492000,4.676491943359375,-0.006217559340596199,-0.10646615956122986,0.020066198081523177
1782942187335477000,4.68647705078125,-0.04682721762657165,-0.11283764908821321,0.03280176101401448
1782942187345462000,4.6964619140625,-0.10315350048243999,-0.10632019348558969,0.06583722118604927
1782942187355447000,4.706447021484375,-0.13193769641816616,-0.09376794209759681,0.07932911891117692
1782942187365432000,4.71643212890625,-0.14319324992597102,-0.12215290958266704,0.06706910106856376
1782942187375417000,4.7264169921875,-0.11534311996996402,-0.1475313795949798,0.05785557478237897
1782942187385401900,4.73640185546875,-0.08973287789523601,-0.15699087086571378,0.043588381835818285
1782942187395387000,4.746386962890625,-0.10119009145498276,-0.13898917669910005,0.01277889061756432
1782942187405372000,4.756371826171875,-0.1426280172586441,-0.1139461491862312,-0.04362783706337213
1782942187415357000,4.76635693359375,-0.2079495074748993,-0.09815884313345886,-0.06774199536144733
1782942187425342200,4.77634228515625,-0.2976888151109218,-0.07857914079409092,-0.09612678018342703
1782942187435327000,4.786326904296875,-0.3808633574038744,-0.05394680384080857,-0.12056147567275911
1782942187445312000,4.79631201171875,-0.4161754938036203,-0.025025300059933215,-0.13498645299691706
1782942187455297000,4.806297119140625,-0.43223698628842827,0.007208881066041067,-0.16755195756964383
1782942187465282800,4.81628271484375,-0.4070370785802602,0.003911707250750624,-0.1652227474370971
1782942187475267800,4.826267822265625,-0.36173663212955,-0.028935815434018148,-0.16030293628945946
1782942187485253000,4.836253173828125,-0.2944949875056743,-0.07067530886698514,-0.15018183017168193
1782942187495238100,4.846238037109375,-0.2579372349590063,-0.08982310432880185,-0.13721399285327643
1782942187505223000,4.856222900390625,-0.19417758723199366,-0.08115574981644749,-0.15485080836340784
1782942187515208000,4.8662080078125,-0.09709726918339728,-0.09469027197374962,-0.15544004296083003
1782942187525193000,4.87619287109375,0.018815175107121468,-0.07441025761160999,-0.16607414010204374
1782942187535178000,4.886177978515625,0.11719371627271175,-0.04079148112628609,-0.11157364790122955
1782942187545163000,4.8961630859375,0.15802666192054748,-0.035642863908165595,-0.04542655704841018
1782942187555147800,4.906147705078125,0.17502865012586116,-0.059499912489880805,0.006335632762312889
1782942187565133000,4.916133056640625,0.16642390338778495,-0.0761441367660882,0.02300210540294647
1782942187575118000,4.9261181640625,0.1688350561827421,-0.05066013315322343,0.010289083095826207
1782942187585103000,4.93610302734375,0.1959802527397871,-0.0041650806506761,0.028736666999571024
1782942187595088100,4.946088134765625,0.2326654310584068,0.07243211223932448,0.026304069557785987
1782942187605073000,4.956072998046875,0.29555706377923485,0.11781506304144859,0.017961152093671263
1782942187615058000,4.966057861328125,0.32968145169913765,0.1327178504778072,0.03845774094909429
1782942187625044200,4.976044189453125,0.29927403847575185,0.10322746076779439,0.08176620986498892
1782942187635029000,4.986029052734375,0.26947277445197104,0.05921949267988093,0.1189735854268074
1782942187645014000,4.996013916015625,0.19839549718797206,0.034762206332827915,0.12460720739960669
1782942187654999000,5.0059990234375,0.09893442148268222,0.002773276092883316,0.13377590816337614
1782942187664984000,5.015984130859375,0.009608955344557761,-0.004550448968516138,0.15008669923413545
1782942187674968800,5.02596875,-0.0989922891497612,0.01487297796162893,0.15024758888427167
1782942187684953900,5.035953857421875,-0.1824994243979454,0.06053045198086183,0.10947221864257008
1782942187694939000,5.04593896484375,-0.2570546069055796,0.07381448824212421,0.04786090805586427
1782942187704924200,5.055924072265625,-0.31864918555319305,0.05154037745331879,-0.00827982563264668
1782942187714909200,5.0659091796875,-0.3650000178396702,0.002599551506526768,-0.07068645131550728
1782942187724894000,5.07589404296875,-0.4203255992203951,-0.06843899204912596,-0.09489088171292095
1782942187734879000,5.08587890625,-0.48342239912450313,-0.1320755157199688,-0.08150679174382239
1782942187744864000,5.095864013671875,-0.5481278032690287,-0.14618437629966063,-0.05324979801997542
1782942187754849000,5.10584912109375,-0.6021148295223713,-0.12132917210962622,-0.06707103729732335
1782942187764834000,5.115833984375,-0.6137707805246114,-0.05933847028389573,-0.10254976243562995
1782942187774818800,5.12581884765625,-0.582388969311118,0.03521616521198302,-0.20040588716231286
1782942187784804000,5.13580419921875,-0.6207090553551912,0.08801178972367196,-0.20741941918618975
1782942187794790100,5.1457900390625,-0.6141974815040826,0.05574449177938513,-0.10981851132959126
1782942187804775000,5.15577490234375,-0.5346341154456138,0.009995187316322698,-0.04789944996796548
1782942187814760000,5.165760009765625,-0.39062370391786094,0.016377572696655986,-0.021773038532026112
1782942187824745000,5.175744873046875,-0.21802081963419914,0.04057506189662963,-0.011022877263091504
1782942187834730000,5.18572998046875,-0.059282210052013395,0.045609667663509025,0.02408770868256688
1782942187844714800,5.19571484375,0.07785890022814274,0.028374537422601133,0.040155594375543294
1782942187854700000,5.205699951171875,0.21158815623819827,0.020786319916462525,0.0914481939131394
1782942187864684800,5.215684814453125,0.2972100916832685,0.03593786708265543,0.14002631032764912
1782942187874669800,5.225669921875,0.3252893542200327,0.06794886131146922,0.18154376764092595
1782942187884654800,5.23565478515625,0.3049742959439754,0.08345628184378147,0.21742234228439627
1782942187894639900,5.245639892578125,0.2790162633448839,0.09610681510763243,0.2410729381913319
1782942187904625000,5.255625,0.25188392626941203,0.10855227251974865,0.25392693987172094
1782942187914610000,5.26560986328125,0.2562210786908865,0.11314226719113066,0.27718028008937834
1782942187924595000,5.275594970703125,0.2562374453037977,0.14275334240505472,0.2537285312227905
1782942187934580000,5.285580078125,0.23554478588700292,0.18301153863854705,0.20362083062082528
1782942187944564700,5.295564697265625,0.21181670429706573,0.22549058925928547,0.14462101770676672
1782942187954551000,5.305551025390625,0.15029343731999398,0.2851502360552549,0.0753985745292157
1782942187964536000,5.3155361328125,0.122943073579669,0.3392882881518453,0.04761866026520729
1782942187974520800,5.325520751953125,0.0698386753797531,0.35651210241429504,0.05324135898519307
1782942187984505900,5.335505859375,-0.05732756885290145,0.3387257588982582,0.0971141837855801
1782942187994491000,5.345490966796875,-0.20827508616745471,0.2572230953402817,0.1461607579620555
1782942188004476000,5.355475830078125,-0.3349608534067869,0.17895093813613056,0.14199370141047984
1782942188014461000,5.3654609375,-0.40086043577194214,0.15495388514539227,0.12948599241711198
1782942188024445700,5.37544580078125,-0.40345454391837116,0.21392209734478965,0.135017615320161
1782942188034431000,5.385430908203125,-0.3605716800034046,0.28547113857269285,0.1547844285963103
1782942188044416000,5.395416015625,-0.311565949293971,0.3431133263327181,0.1699332632156089
1782942188054401000,5.405401123046875,-0.2196516357064247,0.3615018369929865,0.1673837248632684
1782942188064385800,5.4153857421875,-0.1123679035514593,0.3394489220736548,0.16686054123938082
1782942188074370800,5.425370849609375,0.03591419394612312,0.3009161979258992,0.16307557934056965
1782942188084355800,5.43535595703125,0.18747721281051635,0.21093778430437668,0.1733351075483486
1782942188094340900,5.4453408203125,0.2685620893478393,0.07743473826562985,0.20552728529665618
1782942188104326000,5.455325927734375,0.2813467521190643,-0.06823995321253314,0.22250560036543757
1782942188114312000,5.46531201171875,0.2746662514418363,-0.13717406270168722,0.20561160257924346
1782942188124297000,5.475296875,0.25647885284423827,-0.1134662567147985,0.12052538144607096
1782942188134282000,5.485281982421875,0.15244623143970965,-0.09823078499166295,0.09258432180359959
1782942188144266800,5.495266845703125,0.010515548795461654,-0.11272579534472897,0.06829045955706388
1782942188154251800,5.505251708984375,-0.143446932426095,-0.12367469405615701,0.009486351878196
1782942188164236800,5.51523681640625,-0.27728374046385285,-0.12556670008152723,-0.048081565069220955
1782942188174221800,5.525221923828125,-0.3802870188206434,-0.12111010426515713,-0.09112075205706059
1782942188184206800,5.535206787109375,-0.44739363888800143,-0.1290652279880829,-0.11539214674346149
1782942188194192000,5.54519189453125,-0.4809036943018436,-0.1637043422307819,-0.13181385084278882
1782942188204177000,5.555177001953125,-0.4655822065293789,-0.19405226208558304,-0.11817045235037803
1782942188214162000,5.565161865234375,-0.3907511296898126,-0.17866351776318623,-0.1286658351406455
1782942188224147000,5.57514697265625,-0.2844020480364561,-0.15614272960377856,-0.17335826922822742
1782942188234131700,5.585131591796875,-0.24287761299312113,-0.15904676221590489,-0.1516633009010926
1782942188244116700,5.59511669921875,-0.21177520324289797,-0.19495951312361284,-0.041630781494639814
1782942188254101800,5.605101806640625,-0.2872200280666351,-0.1428156853178516,-0.028146372956223784
1782942188264087000,5.615087158203125,-0.3484504495769739,-0.07954250593353063,-0.1111615234363824
1782942188274072800,5.62507275390625,-0.35393034229278564,-0.07928710640035569,-0.10257924425844102
1782942188284057900,5.635057861328125,-0.3293482742220163,-0.06667924323445186,-0.05942512565404176
1782942188294043000,5.64504296875,-0.2956710455477238,0.025509211119357496,-0.013570406321436166
1782942188304028000,5.65502783203125,-0.18190905728936194,0.0944526912250556,0.04388575734719634
1782942188314012700,5.6650126953125,-0.08535480894148349,0.10099444101871922,0.08590345580019056
1782942188323998000,5.674998046875,-0.003023731735348701,0.08837501527918502,0.09282635039854795
1782942188333983000,5.68498291015625,0.1186596971720457,0.10379658415894955,0.09209555190596729
1782942188343968000,5.694968017578125,0.22660686167180538,0.14825268874000758,0.09994473103638737
1782942188353952800,5.704952880859375,0.3046060471534729,0.1783511090794578,0.10665697855874895
1782942188363937800,5.714937744140625,0.35325755759775634,0.18429481991473584,0.14294227083958685
1782942188373922800,5.7249228515625,0.34500293947160243,0.17995120121985672,0.12023900225274264
1782942188383907800,5.734907958984375,0.31797581633627414,0.19242944665672257,0.07569985903073102
1782942188393892900,5.744892822265625,0.2914350154131651,0.202979920635093,0.015651852237991988
1782942188403878000,5.7548779296875,0.28655659572184083,0.16118044977635143,0.004216192922927439
1782942188413863000,5.76486279296875,0.2560562435179949,0.1099159438220784,0.0429667062735185
1782942188423848000,5.774847900390625,0.19840484953820703,0.06658442282415926,0.08350044977907091
1782942188433833700,5.784833740234375,0.16952186940312386,0.022302871092408895,0.12158643480632453
1782942188443818800,5.79481884765625,0.13700316311419009,-0.0180437888758257,0.1061314203146845
1782942188453803800,5.8048037109375,0.14012451000511644,-0.02422251404337585,0.07827153614964336
1782942188463788800,5.814788818359375,0.09969254637360572,-0.016948358321934937,0.09619695934280753
1782942188473774000,5.824774169921875,0.03969020535349846,0.007462024710047989,0.10826510787513106
1782942188483758800,5.8347587890625,-0.044025019687414166,0.010233169923815875,0.106384591358155
1782942188493743900,5.844743896484375,-0.12131284202933311,-0.0036587417032569645,0.09162950529679656
1782942188503729000,5.85472900390625,-0.17552081755697727,0.00038348289225250483,0.11806041610464453
1782942188513714000,5.8647138671875,-0.2682674903154373,0.007822236324567347,0.1297514384202659
1782942188523698700,5.87469873046875,-0.3314578137218952,0.01265150137823075,0.10155015693902969
1782942188533683700,5.88468359375,-0.36462884643971916,-0.015208583716209976,0.06682491704914718
1782942188543668700,5.894668701171875,-0.3631581893652677,-0.04948494732743129,0.052399062942154705
1782942188553654000,5.904654052734375,-0.3697200320988893,-0.07472579896734095,0.04526219679955393
1782942188563639000,5.91463916015625,-0.372958283367753,-0.10820825398820452,0.04605495461244136
1782942188573623800,5.924623779296875,-0.3679477617293596,-0.12715989669025876,0.042576428314298385
1782942188583609900,5.93460986328125,-0.35648528747260566,-0.1219640085475985,0.049138672906719146
1782942188593595000,5.944594970703125,-0.35231589283347126,-0.09464028621902688,0.04381313050240278
1782942188603579600,5.95457958984375,-0.37397593597769735,-0.03784855040903203,0.045654885911569
1782942188613565000,5.96456494140625,-0.38616263285577296,0.008051304973242805,0.0374903937542811
1782942188623550000,5.974550048828125,-0.40097383301854134,0.05753993296194821,0.029476525581441818
1782942188633535000,5.984534912109375,-0.3500403491169214,0.08630063842423259,-0.013905081635899841
1782942188643520000,5.99452001953125,-0.28610768291056154,0.09771008558580652,-0.05353131837509572
1782942188653504800,6.0045048828125,-0.2463385671019554,0.07341313633304089,-0.05937313973847776
1782942188663489800,6.01448974609375,-0.19499767144322394,0.027846020036470142,-0.05830952909495681
1782942188673474800,6.024474853515625,-0.16246844376027583,-0.021823791471729054,-0.07259893387332558
1782942188683459800,6.0344599609375,-0.15066460871994494,-0.043547136509977276,-0.08879051901120692
1782942188693444900,6.04444482421875,-0.16983926478922365,-0.07540295844338833,-0.12004205490853637
1782942188703430000,6.054429931640625,-0.15330430957376956,-0.08820152187580242,-0.11297292023990303
1782942188713415000,6.064414794921875,-0.13691899196207521,-0.08308176770927383,-0.11849391215108335
1782942188723400000,6.07439990234375,-0.0923912834495306,-0.053728923306427895,-0.11221030183695256
1782942188733385000,6.084385009765625,-0.012567805150151252,-0.025407047652825712,-0.07895458651036023
1782942188743370800,6.094370849609375,0.06982464685440062,-0.020104794792551547,-0.06747556297760457
1782942188753356000,6.10435595703125,0.12927987538576124,-0.03787489955984056,-0.05156904185879975
1782942188763341000,6.114341064453125,0.18922902491390703,-0.05629895645752549,-0.04764269872792065
1782942188773325800,6.124325927734375,0.24018004447221755,-0.04970631672684103,-0.0584809401391074
1782942188783310800,6.134310791015625,0.2791179701536894,-0.047411940445657816,-0.05295107080172747
1782942188793296000,6.1442958984375,0.2807680754482746,-0.0674454966329038,-0.05160214041080326
1782942188803281000,6.154281005859375,0.22793781801462173,-0.09032910848902538,-0.016696612050570547
1782942188813266000,6.164265869140625,0.13565817824602125,-0.1101812436947599,0.022545666872337458
1782942188823250700,6.174250732421875,0.04263619567751884,-0.10617939677541144,0.04858542293813079
1782942188833236000,6.184236083984375,-0.0812678318887949,-0.0827322692850139,0.06590517185572535
1782942188843221000,6.194220947265625,-0.20455168173015117,-0.07445410588649101,0.06009433015249669
1782942188853206000,6.2042060546875,-0.2898036148190498,-0.08242429018123075,0.060068465058878064
1782942188863191800,6.21419189453125,-0.3343921136081219,-0.11346101428410038,0.06405811921693384
1782942188873176800,6.2241767578125,-0.3224398100078106,-0.11409440768365747,0.09330014192275703
1782942188883161900,6.234161865234375,-0.2854208696901798,-0.08389016148271039,0.12071202659197151
1782942188893147000,6.24414697265625,-0.2123012729436159,-0.03908976437547244,0.10468282894156873
1782942188903133000,6.2541328125,-0.23403847297728061,-0.01091843964108266,0.08948701337538659
1782942188913118000,6.264117919921875,-0.25722879442870616,0.001420771784428507,0.05153996189478784
1782942188923103000,6.27410302734375,-0.2615022339642048,-0.0037399902459233996,0.017741773721948264
1782942188933087700,6.284087646484375,-0.28977789585590363,0.015383428826462476,0.015297157048806548
1782942188943072800,6.29407275390625,-0.3434919503867626,0.011818557685427366,0.01019201592952013
1782942188953057800,6.304057861328125,-0.34115736995935436,-0.025301961576845496,0.011995631285384297
1782942188963043000,6.31404296875,-0.3636690614968538,-0.073300889863912,0.03503890894893557
1782942188973027800,6.32402783203125,-0.39512569151222704,-0.09635560223693028,0.04941168116182089
1782942188983012900,6.334012939453125,-0.38659810166358943,-0.07779550700257531,0.06925820861067622
1782942188992998000,6.343997802734375,-0.3360328665524721,-0.0365732606430538,0.07790701368618756
1782942189002983000,6.35398291015625,-0.2629869195640087,-0.006128054426237941,0.06148662476111203
1782942189012968000,6.363968017578125,-0.1814753420472145,0.010097679576417431,0.07017152406331151
1782942189022952700,6.37395263671875,-0.10456219823658466,0.027429292461741715,0.06663180562984197
1782942189032937700,6.383937744140625,-0.010719546934962272,0.042136803921172396,0.050177149108983576
1782942189042923000,6.393923095703125,0.06727437784969806,0.05376050575478002,0.053945013742521405
1782942189052908800,6.40390869140625,0.10252455492913723,0.04745255558383651,0.0874678921053186
1782942189062893800,6.413893798828125,0.10945873810648918,0.043715497080516065,0.12326306278165429
1782942189072878800,6.42387890625,0.11911445520222186,0.04382930531906895,0.09235920781083405
1782942189082863900,6.43386376953125,0.07969196087419986,0.049793090827995906,0.06973101375419646
1782942189092849000,6.443848876953125,-0.005066635739803314,0.0452476659507025,0.0923549334945157
1782942189102833700,6.453833740234375,-0.012429857984185218,0.05336824590102769,0.07893621060345321
1782942189112819000,6.46381884765625,0.03079436671435833,0.07670207660952583,0.057113085852004586
1782942189122804000,6.473803955078125,0.05905716912448406,0.10491539558842777,0.07480992445368319
1782942189132789000,6.4837890625,0.037760114073753355,0.09820042638601735,0.07855842679962516
1782942189142773800,6.493773681640625,0.0500841735959053,0.05120741460532881,0.0850206816162914
1782942189152758800,6.5037587890625,0.05497895990014076,0.034883910183468834,0.07535904623642563
1782942189162743800,6.513743896484375,0.030270635101199147,0.07178955371920019,0.0935268633507192
1782942189172728800,6.523728759765625,-0.021728432205319403,0.09099157271943986,0.10964958450347184
1782942189182713900,6.5337138671875,-0.043643326893448825,0.11998593167397192,0.10761910158917307
1782942189192699000,6.543698974609375,-0.10667816747725009,0.15893685383433476,0.06992945893574505
1782942189202684000,6.553683837890625,-0.14435937109589575,0.1810196707015857,0.044882842093147336
1782942189212670000,6.563669921875,-0.11223872421383857,0.17181845590770242,0.05587225547805428
1782942189222654700,6.57365478515625,-0.06361410177648068,0.1490096080545336,0.08890625434536487
1782942189232639700,6.5836396484375,-0.040567572709918016,0.12826304475972428,0.12719422821812332
1782942189242624800,6.593624755859375,-0.02962181580364704,0.0736222581722308,0.11938022999893873
1782942189252610000,6.603610107421875,-0.013722820404171943,0.02581907165297307,0.1304155283521861
1782942189262594800,6.6135947265625,-0.0173889416962862,0.0014266352696344256,0.14632369343880564
1782942189272579800,6.623579833984375,-0.022790508478879926,0.002544268522178754,0.1685575544156134
1782942189282564900,6.63356494140625,-0.04671382037997245,0.08056289848983288,0.15367336208187043
1782942189292550000,6.6435498046875,-0.03739128076136112,0.13947103279875592,0.12355835593380034
1782942189302535000,6.653534912109375,-0.0143085113376379,0.15183209072989412,0.10097834840044378
1782942189312519700,6.663519775390625,-0.023263386687636375,0.1200127831482794,0.1091361916212365
1782942189322504700,6.673504638671875,-0.016493454161286353,0.06211110420185141,0.12778185538034886
1782942189332490000,6.683489990234375,0.05942541791498661,0.016300701218296305,0.12694631787166
1782942189342475000,6.69347509765625,0.08903963493406772,0.011954650821024551,0.13603968837689606
1782942189352460000,6.7034599609375,0.07889934919178486,0.040081624957034365,0.15285207229424266
1782942189362445800,6.71344580078125,0.05155424614846706,0.04432791162412613,0.14879720741286873
1782942189372430800,6.723430908203125,-0.05864391214847564,0.03245566240652697,0.16053323791399599
1782942189382416000,6.733415771484375,-0.1848217298656702,0.041405347841465844,0.1499102832213044
1782942189392401000,6.74340087890625,-0.25575930639803407,0.05556223968081176,0.11317878154292701
1782942189402386000,6.753385986328125,-0.2776999200493097,0.05488977464619092,0.10346307788826524
1782942189412371000,6.763370849609375,-0.26480069098770614,0.05277794272452593,0.14082776290364563
1782942189422356000,6.77335595703125,-0.35084114410579204,0.047792619459470734,0.23572664525993167
1782942189432340700,6.7833408203125,-0.13916063340902327,0.008581881885719485,0.20811689993105828
1782942189442325800,6.79332568359375,-0.0730371791601181,8.128507528454065e-7,0.020532062027603385
1782942189452310800,6.803310791015625,-0.19688450810313224,0.016210559266409835,0.03021751667447388
1782942189462295800,6.8132958984375,-0.15099369454383849,-0.024527620770060456,0.08486066874898969
1782942189472281000,6.823281005859375,-0.12180033328533171,-0.07759890671824105,0.09990180521011352
1782942189482265900,6.833265869140625,-0.10972411104440688,-0.08031326197716407,0.11312792813852429
1782942189492251000,6.8432509765625,-0.12160218036472796,-0.057595024150051174,0.09169942872785031
1782942189502236000,6.85323583984375,-0.1832967122554779,-0.04319972044494934,0.022719196808338164
1782942189512221700,6.8632216796875,-0.21711364166140554,-0.07587974564228206,-0.00886398219615221
1782942189522206700,6.873206787109375,-0.22428280263841152,-0.10453398592225276,-0.0063456426996737715
1782942189532191700,6.883191650390625,-0.23398294339776038,-0.0930551450525876,-0.009616919455304742
1782942189542177000,6.893177001953125,-0.19710779546499252,-0.09743148784013464,-0.027714667008072135
1782942189552162000,6.903162109375,-0.1851566609084606,-0.13519221383524127,-0.03229468827471137
1782942189562146800,6.913146728515625,-0.1946849522322416,-0.15312481568786315,-0.0702821813635528
1782942189572131800,6.9231318359375,-0.18546411942243574,-0.15684598250230775,-0.10264124011136591
1782942189582116900,6.933116943359375,-0.1420049169242382,-0.14405390360960735,-0.1113815228626132
1782942189592102000,6.943101806640625,-0.13173895897567273,-0.12143908962435088,-0.11833528752326965
1782942189602086700,6.953086669921875,-0.12431260836720466,-0.11767936263149603,-0.10837021221742034
1782942189612071700,6.96307177734375,-0.1244938101530075,-0.09455723844491876,-0.10451360985450446
1782942189622057000,6.973056884765625,-0.1511678820669651,-0.05631216299897059,-0.10682195986211299
1782942189632042000,6.9830419921875,-0.1750315727353096,-0.04562681972770952,-0.1175019785042852
1782942189642027000,6.993027099609375,-0.15354980876743793,-0.05001930079930462,-0.14315145661085843
1782942189652011800,7.00301171875,-0.16907003398239612,-0.05794782877624966,-0.13068133968152104
1782942189661997800,7.012997802734375,-0.17090952436923978,-0.061064307695813475,-0.10238858052454888
1782942189671982800,7.02298291015625,-0.1743640487372875,-0.07081229705172591,-0.07027524016611278
1782942189681967900,7.0329677734375,-0.12529343609809876,-0.04151974973506294,-0.09187266640290617
1782942189691953000,7.042952880859375,-0.0905219824463129,-0.012530761075392364,-0.09894618498571217
1782942189701938000,7.05293798828125,-0.08379004384279251,0.013765892360918222,-0.07273454295173287
1782942189711923000,7.0629228515625,-0.19589608158767222,0.03947912901923992,0.005040989841893315
1782942189721908000,7.072907958984375,0.031925416570901866,0.05974698715270497,-0.015282982392981648
1782942189731892700,7.082892822265625,0.05079553673565387,0.11605426391400396,-0.12448401941135524
1782942189741877800,7.092877685546875,-0.053850832653045654,0.1637474141875282,-0.06984693175144494
1782942189751862800,7.10286279296875,-0.05038637141287326,0.11369432984963058,-0.005127352951094508
1782942189761848000,7.11284814453125,-0.04446984084546566,0.054013841195032,-0.005687909443303943
1782942189771832800,7.122832763671875,-0.003827449333667755,0.04540843686982989,-0.010078253356739878
1782942189781817900,7.13281787109375,0.008636310920119286,0.042553449297510086,0.027704730135947465
1782942189791803000,7.142802978515625,-0.003944353711605072,0.014771005149697885,0.056364349843934174
1782942189801788000,7.152787841796875,0.00990180081129074,-0.01791668276428245,0.08843085538595914
1782942189811773000,7.16277294921875,-0.010925883162021637,-0.021814977977611123,0.09939992010258138
1782942189821758700,7.1727587890625,-0.003211363261938095,0.02109294731337577,0.10390936035104095
1782942189831744000,7.182743896484375,0.008968319353461264,0.07338220233866014,0.11068506503105163
1782942189841729000,7.19272900390625,0.015029226827621459,0.09150132147301919,0.10960779118835925
1782942189851713800,7.2027138671875,-0.055879708132147786,0.06796043301825411,0.15661840255782009
1782942189861698800,7.21269873046875,-0.10193243425488471,0.04266835351460613,0.15701310096383095
1782942189871682600,7.2226826171875,-0.06476385633349419,0.05616754863020032,0.1383311237823218
1782942189881667600,7.23266748046875,-0.04473988995850086,0.06245506793446839,0.15695567168816923
1782942189891652600,7.242652587890625,-0.031096564531326292,0.02302076443764381,0.20899353663511572
1782942189901637600,7.2526376953125,-0.036653029614686965,-0.0411029856277164,0.22892010705024002
1782942189911622400,7.262622314453125,-0.04762742809355259,-0.09634761072671971,0.22555611050985752
1782942189921607700,7.272607666015625,-0.059333063456416126,-0.1096823542619124,0.22182437663562596
1782942189931592700,7.2825927734375,-0.08796586822271346,-0.07787322101444005,0.2162998410604894
1782942189941577700,7.29257763671875,-0.1619815370261669,-0.055548631280567494,0.22069354597479104
1782942189951562800,7.302562744140625,-0.23431495183110235,-0.07517510450426489,0.23915925005711614
1782942189961547500,7.312547607421875,-0.16302549312114714,-0.06515959591912106,0.17606573808863757
1782942189971533600,7.322533447265625,-0.14516601130366324,-0.029708617304265498,0.1524715120114386
1782942189981518600,7.3325185546875,-0.17790157521367073,-0.04796091609792784,0.15969006508812308
1782942189991503600,7.342503662109375,-0.17443711397349834,-0.12375594259882346,0.16283640028983354
1782942190001488600,7.352488525390625,-0.13987725724577904,-0.17810341792870313,0.14759601492956279
1782942190011473700,7.3624736328125,-0.16903379362523555,-0.17382981399642303,0.15994447824060917
1782942190021458700,7.372458740234375,-0.16140870557427406,-0.1356789105067961,0.15959953726045786
1782942190031443700,7.382443603515625,-0.08658990369439125,-0.08635596707435324,0.114133232723549
1782942190041428500,7.392428466796875,-0.0362245750695467,-0.04051067315721884,0.08671163037791847
1782942190051413500,7.40241357421875,-0.04405950647890568,-0.062236018356308334,0.12187690565288066
1782942190061398500,7.4123984375,-0.021005963149666785,-0.10258974738614633,0.11640877644009888
1782942190071383800,7.4223837890625,0.02613748081922531,-0.10756189150921999,0.09305720001235604
1782942190081368600,7.43236865234375,0.0631815555781126,-0.09418112600836902,0.12276026435866952
1782942190091353600,7.442353515625,0.10029986461699009,-0.07252729340922087,0.1618964160259813
1782942190101338600,7.452338623046875,0.05468202278017997,-0.05785866178860888,0.17588935860842464
1782942190111323600,7.46232373046875,-0.0639963790923357,-0.07611636740975082,0.15515001050569116
1782942190121309400,7.472309326171875,-0.09955343016386031,-0.115535464204289,0.10078041467554867
1782942190131294700,7.482294677734375,-0.022194880673289296,-0.13199907121658325,0.054678369518369435
1782942190141279700,7.49227978515625,-0.01718669712245464,-0.10003673843508586,0.11556209648288786
1782942190151264800,7.5022646484375,-0.0645715486317873,-0.05307860617153346,0.17320633006952701
1782942190161249500,7.51224951171875,-0.0703968937844038,-0.03925040743043646,0.14683328692875802
1782942190171234600,7.522234619140625,-0.028436989933252332,-0.027556170244421807,0.023414193335175512
1782942190181219600,7.532219482421875,-0.006029927814006805,-0.001082059615664184,-0.05258497743569314
1782942190191204600,7.54220458984375,0.02385784544944763,0.01426233410835266,-0.0676432842273265
1782942190201189600,7.552189697265625,0.014690788653492926,0.0012053937343880533,-0.021203896874561905
1782942190211174700,7.562174560546875,-0.07434066297411918,-0.021893376976065335,0.04099325077608228
1782942190221159700,7.57215966796875,-0.19424714533686638,-0.0454659026781097,0.022565467551350592
1782942190231144700,7.582144775390625,-0.08113748350739479,-0.04114343636911362,-0.07078472405821085
1782942190241129700,7.592129638671875,0.02745557768046856,-0.021169811941869555,-0.08465257895626127
1782942190251114500,7.602114501953125,0.07761340103447437,0.019834544750116763,-0.09261961231268942
1782942190261099500,7.612099609375,0.11170271764099597,-0.018472974073328076,-0.004863806644082069
1782942190271085600,7.62208544921875,0.13934066615104673,-0.10303107967916876,0.06789550542272627
1782942190281070600,7.632070556640625,0.1488186885923147,-0.15795282949935643,0.06069061554521322
1782942190291055600,7.6420556640625,0.33390111522078514,-0.12228022575676441,-0.09713760119378566
1782942190301040600,7.65204052734375,1.843452276211977,0.13891520728059112,-0.33328097402844575
1782942190311025700,7.662025634765625,0.32987025226950645,0.17480602035112677,0.17784831065647302
1782942190321010700,7.6720107421875,-0.09764029001891612,-0.19495372270364314,0.5275901152182371
1782942190330995500,7.681995361328125,0.0002402384966611862,-0.23424572251979262,-0.037503728159889574
1782942190340980500,7.69198046875,-0.20829495991170405,-0.10634140980355442,-0.06183518247045576
1782942190350965500,7.701965576171875,-0.10485913535654544,-0.11609152718447148,0.070590005203709
1782942190360950800,7.71195068359375,0.4492646934568882,-0.1504637158529833,0.03244607944414019
