time,seconds_elapsed,z,y,x
1782942148530451500,0.078451416015625,-0.0022278479300439358,0.05222728103399277,0.13496114313602448
1782942148540437500,0.0884375,0.005356066860258579,0.049905020743608475,0.12376052886247635
1782942148550422500,0.098422607421875,0.013304004445672035,0.03464936837553978,0.09172989428043365
1782942148560407300,0.1084072265625,0.008242666721343994,0.02188829705119133,0.042803894728422165
1782942148570392300,0.118392333984375,0.001519250450655818,0.015246108174324036,0.001806396059691906
1782942148580377300,0.12837744140625,-0.004515735898166895,0.005702698603272438,-0.026677777990698814
1782942148590362400,0.1383623046875,-0.001016608439385891,-0.00938330963253975,-0.036609500646591187
1782942148600347400,0.148347412109375,0.007175021804869175,-0.02577415481209755,-0.024468161165714264
1782942148610332400,0.15833251953125,0.01656053401529789,0.0020944951102137566,-0.004689396824687719
1782942148620317400,0.1683173828125,0.028257910162210464,0.04776295647025108,0.017991961911320686
1782942148630302500,0.178302490234375,0.030918141826987267,0.08266527950763702,0.043318890035152435
1782942148640287500,0.18828759765625,0.0328851118683815,0.11344090849161148,0.06398917734622955
1782942148650272300,0.198272216796875,0.03478820621967316,0.14652056992053986,0.07779473811388016
1782942148660257300,0.20825732421875,0.03202914819121361,0.1653078943490982,0.0877871960401535
1782942148670242300,0.2182421875,0.026168063282966614,0.1777043640613556,0.09265172481536865
1782942148680227600,0.2282275390625,0.021016012877225876,0.18601328134536743,0.09057673066854477
1782942148690212600,0.238212646484375,0.018716905266046524,0.1841764897108078,0.07768836617469788
1782942148700197400,0.248197265625,0.014097332954406738,0.16063180565834045,0.05606252700090408
1782942148710182400,0.258182373046875,0.009307637810707092,0.13478556275367737,0.029636777937412262
1782942148720167400,0.26816748046875,0.011758808046579361,0.11563581973314285,0.013342563062906265
1782942148730152400,0.27815234375,0.018095001578330994,0.10563325136899948,0.006715819239616394
1782942148740137200,0.28813720703125,0.022060228511691093,0.10008257627487183,0.010914064012467861
1782942148750122200,0.298122314453125,0.017190638929605484,0.11014346033334732,0.021724900230765343
1782942148760107500,0.308107421875,0.002226577140390873,0.1315223127603531,0.041881583631038666
1782942148770092500,0.318092529296875,-0.014781966805458069,0.14171048998832703,0.07627950608730316
1782942148780077600,0.32807763671875,-0.03255429491400719,0.15944431722164154,0.10938151925802231
1782942148790062300,0.338062255859375,-0.04208361729979515,0.16262280941009521,0.1436641365289688
1782942148800047400,0.34804736328125,-0.046624805778265,0.15416622161865234,0.1645522117614746
1782942148810032400,0.358032470703125,-0.05097534507513046,0.14006105065345764,0.1687978208065033
1782942148820017400,0.368017333984375,-0.042852483689785004,0.09179755300283432,0.14864099025726318
1782942148830002400,0.37800244140625,-0.031917277723550797,0.032547011971473694,0.12747977674007416
1782942148839987200,0.3879873046875,-0.02321462519466877,-0.005055475980043411,0.10835009813308716
1782942148849972200,0.39797216796875,-0.01695566438138485,-0.014271078631281853,0.0918683260679245
1782942148859957200,0.407957275390625,-0.017906131222844124,-0.010675937868654728,0.08110429346561432
1782942148869942300,0.4179423828125,-0.027525734156370163,0.0030302871018648148,0.06756105273962021
1782942148879927000,0.427927001953125,-0.03240920603275299,0.014759874902665615,0.054540812969207764
1782942148889913300,0.437913330078125,-0.04061227664351463,0.017671775072813034,0.038605522364377975
1782942148899898400,0.4478984375,-0.045725204050540924,0.021144673228263855,0.025718174874782562
1782942148909883100,0.457883056640625,-0.04612867161631584,0.0194956436753273,0.018262121826410294
1782942148919868200,0.4678681640625,-0.04229162633419037,0.02671809494495392,0.012162105180323124
1782942148929853200,0.477853271484375,-0.03506540507078171,0.03575366735458374,0.012582618743181229
1782942148939838200,0.487838134765625,-0.03596077859401703,0.044936321675777435,-0.0034422078169882298
1782942148949823200,0.4978232421875,-0.03549552708864212,0.044932588934898376,-0.01986166089773178
1782942148959808300,0.507808349609375,-0.03885185718536377,0.03881525248289108,-0.049614861607551575
1782942148969793300,0.517793212890625,-0.04184737801551819,0.03420025855302811,-0.07522249221801758
1782942148979778300,0.5277783203125,-0.03736134618520737,0.025101516395807266,-0.08880050480365753
1782942148989763300,0.537763427734375,-0.026056762784719467,0.03060360997915268,-0.08777705579996109
1782942148999748400,0.547748291015625,-0.0160555187612772,0.049680981785058975,-0.07404334098100662
1782942149009733000,0.557733154296875,-0.011524682864546776,0.061997298151254654,-0.061170946806669235
1782942149019718100,0.56771826171875,-0.007136873435229063,0.07265833020210266,-0.049489717930555344
1782942149029703200,0.577703125,-0.006892928387969732,0.08439408242702484,-0.04006558656692505
1782942149039688400,0.5876884765625,-0.004481692798435688,0.09285875409841537,-0.029312746599316597
1782942149049673200,0.597673095703125,-0.000318639911711216,0.09440045803785324,-0.02657421864569187
1782942149059658200,0.607658203125,-0.00046748900786042213,0.08959577232599258,-0.020579922944307327
1782942149069643300,0.617643310546875,-0.0010131709277629852,0.07502801716327667,-0.01805950701236725
1782942149079628300,0.627628173828125,-0.0016107629053294659,0.05647983029484749,-0.01569989323616028
1782942149089613300,0.63761328125,0.00018154457211494446,0.0423661433160305,-0.013102777302265167
1782942149099598000,0.64759814453125,-0.005629760213196278,0.036895014345645905,-0.010076681151986122
1782942149109583000,0.6575830078125,-0.013257586397230625,0.02947012148797512,-0.00886441022157669
1782942149119568400,0.667568359375,-0.019100811332464218,0.0260382741689682,-0.0023952042683959007
1782942149129553400,0.677553466796875,-0.025586139410734177,0.026678230613470078,0.012125414796173573
1782942149139538200,0.6875380859375,-0.036560267210006714,0.03863762319087982,0.03938315808773041
1782942149149523200,0.697523193359375,-0.0421220101416111,0.058766596019268036,0.07643944025039673
1782942149159508200,0.70750830078125,-0.04196777939796448,0.079661525785923,0.10911168158054352
1782942149169493200,0.7174931640625,-0.040026068687438965,0.0864105075597763,0.12733915448188782
1782942149179478300,0.727478271484375,-0.036183085292577744,0.0770043209195137,0.13295939564704895
1782942149189463000,0.737463134765625,-0.036309052258729935,0.05948685109615326,0.12419919669628143
1782942149199448300,0.7474482421875,-0.03374205157160759,0.03482794016599655,0.10616201907396317
1782942149209433300,0.757433349609375,-0.03134840354323387,0.012569771148264408,0.09414263814687729
1782942149219418400,0.76741845703125,-0.03314580023288727,-0.00017772894352674484,0.09111025184392929
1782942149229403100,0.777403076171875,-0.028678081929683685,0.0015179058536887169,0.09391802549362183
1782942149239388200,0.78738818359375,-0.03154492378234863,0.02140604332089424,0.10539461672306061
1782942149249374200,0.797374267578125,-0.029974188655614853,0.03770485520362854,0.12725384533405304
1782942149259359200,0.807359130859375,-0.023587394505739212,0.05313684046268463,0.14279890060424805
1782942149269344300,0.81734423828125,-0.017153197899460793,0.056828513741493225,0.1344008892774582
1782942149279329300,0.827329345703125,-0.014249605126678944,0.04333542287349701,0.11272173374891281
1782942149289314300,0.837314208984375,-0.006603136658668518,0.02233027294278145,0.09388173371553421
1782942149299299300,0.84729931640625,-0.0034203478135168552,0.003794797696173191,0.06671760231256485
1782942149309284000,0.8572841796875,0.00003537023440003395,-0.012754350900650024,0.04054538160562515
1782942149319269000,0.86726904296875,-0.013815730810165405,-0.02343522384762764,0.019309069961309433
1782942149329254100,0.877254150390625,-0.024653198197484016,-0.021473541855812073,-0.000014293938875198364
1782942149339239400,0.887239501953125,-0.030271707102656364,-0.004774794913828373,0.007581065408885479
1782942149349224400,0.897224365234375,-0.03231515362858772,0.02247600257396698,0.028629891574382782
1782942149359209200,0.907209228515625,-0.03260006010532379,0.055340103805065155,0.05391184985637665
1782942149369194200,0.9171943359375,-0.03574419021606445,0.0891321524977684,0.07861319929361343
1782942149379179300,0.92717919921875,-0.032727617770433426,0.10924336314201355,0.08671219646930695
1782942149389164300,0.937164306640625,-0.03521634265780449,0.11843924969434738,0.0934571847319603
1782942149399149000,0.947149169921875,-0.036618031561374664,0.1222429871559143,0.09035790711641312
1782942149409134000,0.957134033203125,-0.04147084057331085,0.1165800541639328,0.08421825617551804
1782942149419119400,0.967119384765625,-0.04756118357181549,0.10680688172578812,0.054678384214639664
1782942149429104400,0.9771044921875,-0.055897943675518036,0.09605942666530609,0.011783115565776825
1782942149439089400,0.98708935546875,-0.06526962667703629,0.07098556309938431,-0.03125521540641785
1782942149449074200,0.99707421875,-0.06391354650259018,0.036075785756111145,-0.0796070396900177
1782942149459059200,1.00705908203125,-0.06096914783120155,0.006778196431696415,-0.11094393581151962
1782942149469044200,1.017044189453125,-0.0545559860765934,-0.007374641485512257,-0.1220538392663002
1782942149479029200,1.027029296875,-0.04784535616636276,-0.007057752925902605,-0.11683584004640579
1782942149489014300,1.03701416015625,-0.051467787474393845,0.011822194792330265,-0.09586451202630997
1782942149498999300,1.046999267578125,-0.06123093515634537,0.03268377482891083,-0.07255299389362335
1782942149508984300,1.056984375,-0.0650017112493515,0.047699473798274994,-0.04968416318297386
1782942149518969300,1.06696923828125,-0.06514927744865417,0.056345678865909576,-0.034278154373168945
1782942149528954400,1.076954345703125,-0.057649821043014526,0.05627856403589249,-0.029637599363923073
1782942149538939100,1.086939208984375,-0.05574354901909828,0.03863415867090225,-0.029062477871775627
1782942149548924200,1.096924072265625,-0.051177557557821274,0.016877463087439537,-0.032786641269922256
1782942149558909200,1.1069091796875,-0.04913059249520302,-0.010908893309533596,-0.032041728496551514
1782942149568894200,1.116894287109375,-0.04193766042590141,-0.03685127943754196,-0.01480548270046711
1782942149578879200,1.126879150390625,-0.03195532038807869,-0.041218217462301254,0.014188610017299652
1782942149588864300,1.1368642578125,-0.0169201772660017,-0.03151019662618637,0.048929810523986816
1782942149598849300,1.146849365234375,-0.002654721960425377,-0.009630212560296059,0.08121013641357422
1782942149608834300,1.156834228515625,0.010354021564126015,0.025974653661251068,0.10258334130048752
1782942149618820000,1.166820068359375,0.011796640232205391,0.06115620583295822,0.11516711860895157
1782942149628805000,1.17680517578125,0.014884309843182564,0.07550451904535294,0.12419416755437851
1782942149638790400,1.186790283203125,0.019337913021445274,0.060149259865283966,0.11664064973592758
1782942149648775400,1.196775390625,0.025956135243177414,0.02581099607050419,0.09199175983667374
1782942149658760200,1.20676025390625,0.028119955211877823,-0.006259561982005835,0.059553325176239014
1782942149668745200,1.2167451171875,0.032222289592027664,-0.03742573410272598,0.022501295432448387
1782942149678730200,1.226730224609375,0.034442588686943054,-0.06193514168262482,-0.0017243619076907635
1782942149688715300,1.23671533203125,0.037816815078258514,-0.0678955689072609,-0.011212939396500587
1782942149698700300,1.2467001953125,0.02837160974740982,-0.05122903734445572,0.00003281468525528908
1782942149708685000,1.25668505859375,0.019606081768870354,-0.016839375719428062,0.027625292539596558
1782942149718670300,1.26667041015625,0.00901024043560028,0.02433563396334648,0.05882444605231285
1782942149728655400,1.2766552734375,-0.0010991194285452366,0.05297660455107689,0.07703381031751633
1782942149738640400,1.286640380859375,-0.014036247506737709,0.05397668480873108,0.08063914626836777
1782942149748625200,1.296625244140625,-0.018539119511842728,0.047872986644506454,0.06492995470762253
1782942149758610200,1.306610107421875,-0.0324222594499588,0.03364858403801918,0.03138735890388489
1782942149768595200,1.31659521484375,-0.041115351021289825,0.004719995893537998,-0.01174306683242321
1782942149778580200,1.326580322265625,-0.04550948366522789,-0.017894573509693146,-0.052787356078624725
1782942149788565200,1.336565185546875,-0.050415560603141785,-0.03405996039509773,-0.07807806134223938
1782942149798550300,1.34655029296875,-0.05071891099214554,-0.041057322174310684,-0.08078742027282715
1782942149808535300,1.356535400390625,-0.056658826768398285,-0.038652487099170685,-0.07056141644716263
1782942149818520300,1.366520263671875,-0.06119421496987343,-0.025287875905632973,-0.05083330348134041
1782942149828505900,1.376505859375,-0.06897065043449402,-0.0071458895690739155,-0.033349648118019104
1782942149838490600,1.38649072265625,-0.08046885579824448,0.015659473836421967,-0.016421329230070114
1782942149848475600,1.3964755859375,-0.08458156883716583,0.025524619966745377,-0.014284675009548664
1782942149858461000,1.4064609375,-0.08766129612922668,0.028626522049307823,-0.0073786042630672455
1782942149868446000,1.416446044921875,-0.08242499083280563,0.032134175300598145,-0.0010527977719902992
1782942149878430700,1.4264306640625,-0.08413836359977722,0.03739666938781738,-0.00005896668881177902
1782942149888415700,1.436415771484375,-0.08448910713195801,0.0409352146089077,-0.0015066610649228096
1782942149898400800,1.44640087890625,-0.08482760190963745,0.03531263768672943,-0.0025183879770338535
1782942149908385800,1.4563857421875,-0.079976387321949,0.022581927478313446,-0.009960057213902473
1782942149918370800,1.466370849609375,-0.07249375432729721,0.011157609522342682,-0.014171086251735687
1782942149928355600,1.47635546875,-0.06394421309232712,0.0033574774861335754,-0.014476018026471138
1782942149938340900,1.4863408203125,-0.05702759325504303,0.007482933811843395,-0.013450241647660732
1782942149948326000,1.496325927734375,-0.05812694504857063,0.027008961886167526,-0.0062706246972084045
1782942149958311000,1.506310791015625,-0.0644744485616684,0.045344553887844086,-0.00030546821653842926
1782942149968296000,1.5162958984375,-0.07324210554361343,0.05341446027159691,-0.003584085963666439
1782942149978280700,1.52628076171875,-0.08092257380485535,0.05095156282186508,-0.00965108722448349
1782942149988266800,1.536266845703125,-0.08323579281568527,0.04365396499633789,-0.022747980430722237
1782942149998251800,1.546251708984375,-0.08340174704790115,0.04142672196030617,-0.02822268381714821
1782942150008236800,1.55623681640625,-0.07966453582048416,0.041110336780548096,-0.020496321842074394
1782942150018221800,1.566221923828125,-0.07424051314592361,0.04847902059555054,-0.007400607690215111
1782942150028206800,1.576206787109375,-0.06983457505702972,0.05402559041976929,0.010011139325797558
1782942150038191900,1.58619189453125,-0.07558244466781616,0.060167353600263596,0.02554474212229252
1782942150048176600,1.5961767578125,-0.08446648716926575,0.06117909029126167,0.03374008461833
1782942150058161700,1.60616162109375,-0.09249673038721085,0.054821450263261795,0.037134893238544464
1782942150068146700,1.616146728515625,-0.09365121275186539,0.04770388826727867,0.033716727048158646
1782942150078131700,1.626131591796875,-0.0895848497748375,0.0364784374833107,0.03059098869562149
1782942150088117000,1.636116943359375,-0.08155994862318039,0.01760009117424488,0.02173944190144539
1782942150098101800,1.646101806640625,-0.07406897097826004,0.001521088182926178,0.005863980855792761
1782942150108086800,1.656086669921875,-0.07141007483005524,-0.01640038937330246,-0.004823018331080675
1782942150118071800,1.66607177734375,-0.06820521503686905,-0.03864414617419243,-0.009725432842969894
1782942150128056800,1.676056884765625,-0.06470528990030289,-0.0552031472325325,-0.010466059669852257
1782942150138041900,1.686041748046875,-0.06471947580575943,-0.059523649513721466,-0.006758566480129957
1782942150148026600,1.696026611328125,-0.07036244124174118,-0.048993512988090515,0.005781193729490042
1782942150158012000,1.706011962890625,-0.07232672721147537,-0.03454926982522011,0.020467888563871384
1782942150167997000,1.715996826171875,-0.07440798729658127,-0.009928612969815731,0.044185202568769455
1782942150177982000,1.72598193359375,-0.06445682048797607,0.011274411343038082,0.06280229240655899
1782942150187966700,1.735966796875,-0.057908643037080765,0.03205053135752678,0.07745473831892014
1782942150197951700,1.74595166015625,-0.0594402514398098,0.03440980613231659,0.07657338678836823
1782942150207936800,1.755936767578125,-0.05771958827972412,0.028541533276438713,0.06618785858154297
1782942150217921800,1.765921875,-0.05923513323068619,0.022889986634254456,0.04271359369158745
1782942150227906800,1.77590673828125,-0.06005219370126724,0.007275604642927647,0.014333083294332027
1782942150237891800,1.785891845703125,-0.05794912204146385,-0.015694089233875275,-0.015252824872732162
1782942150247876900,1.795876953125,-0.053566090762615204,-0.032913025468587875,-0.03809022903442383
1782942150257862000,1.80586181640625,-0.05289663374423981,-0.050730690360069275,-0.05006449669599533
1782942150267847000,1.815846923828125,-0.04940762743353844,-0.049032390117645264,-0.04919843375682831
1782942150277831700,1.825831787109375,-0.04908106476068497,-0.04343442991375923,-0.030292091891169548
1782942150287816700,1.835816650390625,-0.050924770534038544,-0.027857868000864983,-0.002487358171492815
1782942150297801700,1.8458017578125,-0.060775309801101685,-0.011185750365257263,0.03427387401461601
1782942150307786800,1.855786865234375,-0.07019490748643875,0.002827536314725876,0.05302492529153824
1782942150317772000,1.86577197265625,-0.08621621876955032,0.024484096094965935,0.06275984644889832
1782942150327756800,1.8757568359375,-0.09969634562730789,0.036038756370544434,0.056616995483636856
1782942150337741800,1.885741943359375,-0.10249269008636475,0.032056279480457306,0.041660502552986145
1782942150347728000,1.895727783203125,-0.10100638121366501,0.01789385825395584,0.010900459252297878
1782942150357712600,1.905712646484375,-0.09763748943805695,-0.0004340745508670807,-0.02838449366390705
1782942150367697700,1.91569775390625,-0.09463770687580109,-0.016781622543931007,-0.0527644008398056
1782942150377682700,1.9256826171875,-0.0904008150100708,-0.036732882261276245,-0.06384093314409256
1782942150387668000,1.93566796875,-0.08853819966316223,-0.052554987370967865,-0.059590522199869156
1782942150397653000,1.945653076171875,-0.08293837308883667,-0.04411252588033676,-0.03947293758392334
1782942150407637800,1.9556376953125,-0.08315622061491013,-0.020992562174797058,-0.015115397050976753
1782942150417622800,1.965622802734375,-0.0829266682267189,0.001973097212612629,0.004109969362616539
1782942150427607800,1.97560791015625,-0.08251840621232986,0.01669132336974144,0.017514191567897797
1782942150437592800,1.9855927734375,-0.07490604370832443,0.016594508662819862,0.02307761088013649
1782942150447577600,1.99557763671875,-0.07155445218086243,0.013530543074011803,0.018593646585941315
1782942150457562600,2.005562744140625,-0.06595994532108307,-0.0008262088522315025,0.013898022472858429
1782942150467548000,2.0155478515625,-0.05194105952978134,-0.023207414895296097,0.007377805188298225
1782942150477533000,2.025532958984375,-0.035853687673807144,-0.03337309509515762,0.015448970720171928
1782942150487518000,2.03551806640625,-0.022816982120275497,-0.0341922789812088,0.02911578118801117
1782942150497502700,2.045502685546875,-0.017891444265842438,-0.022379660978913307,0.045943085104227066
1782942150507487700,2.05548779296875,-0.018979612737894058,-0.015363030135631561,0.054846297949552536
1782942150517472800,2.06547265625,-0.010092156007885933,-0.01620924286544323,0.06062312051653862
1782942150527457800,2.075457763671875,0.0019796863198280334,-0.021433565765619278,0.06576861441135406
1782942150537442600,2.085442626953125,0.017192745581269264,-0.026953866705298424,0.07204633951187134
1782942150547427800,2.095427734375,0.033323246985673904,-0.03276515007019043,0.07520192116498947
1782942150557412900,2.105412841796875,0.05058691278100014,-0.04352014511823654,0.07821256667375565
1782942150567398000,2.11539794921875,0.05925656855106354,-0.04333025962114334,0.08048637211322784
1782942150577383000,2.1253828125,0.06296741962432861,-0.04343009740114212,0.08290072530508041
1782942150587367700,2.13536767578125,0.057678114622831345,-0.025893718004226685,0.08824888616800308
1782942150597352700,2.145352783203125,0.05292971804738045,-0.003246559761464596,0.09170285612344742
1782942150607337700,2.155337646484375,0.04739700257778168,0.01379021443426609,0.08386251330375671
1782942150617322800,2.16532275390625,0.038030657917261124,0.019574012607336044,0.06933191418647766
1782942150627307800,2.175307861328125,0.03590971603989601,0.019270412623882294,0.05487387254834175
1782942150637292800,2.185292724609375,0.03465563431382179,0.008703282102942467,0.035184524953365326
1782942150647277800,2.19527783203125,0.03632969781756401,-0.004638622514903545,0.020674023777246475
1782942150657262800,2.205262939453125,0.03587666153907776,-0.016439396888017654,0.00427077105268836
1782942150667247900,2.215247802734375,0.03221268206834793,-0.024746594950556755,-0.01021735742688179
1782942150677232600,2.225232666015625,0.027277817949652672,-0.023887470364570618,-0.01803278550505638
1782942150687217700,2.2352177734375,0.017201481387019157,-0.02497696876525879,-0.022565752267837524
1782942150697204000,2.245203857421875,0.004102010745555162,-0.014658833853900433,-0.02965007908642292
1782942150707188000,2.25518798828125,-0.00850326381623745,0.004337494261562824,-0.035647518932819366
1782942150717173800,2.265173828125,-0.019112281501293182,0.009570982307195663,-0.030625367537140846
1782942150727158800,2.27515869140625,-0.024540867656469345,0.014674399048089981,-0.03330157697200775
1782942150737143800,2.285143798828125,-0.027957938611507416,0.010195212438702583,-0.035148829221725464
1782942150747128800,2.29512890625,-0.023196209222078323,-0.0050087738782167435,-0.04547203704714775
1782942150757113600,2.305113525390625,-0.009017059579491615,-0.025579504668712616,-0.05882743000984192
1782942150767099000,2.315098876953125,0.007998676039278507,-0.04437822476029396,-0.0586593821644783
1782942150777084000,2.325083984375,0.019516080617904663,-0.035343144088983536,-0.04913480579853058
1782942150787069000,2.33506884765625,0.031196705996990204,-0.03054892271757126,-0.02941010519862175
1782942150797053700,2.3450537109375,0.035985566675662994,-0.017566345632076263,-0.008806804195046425
1782942150807038700,2.355038818359375,0.044285573065280914,-0.016317855566740036,0.00834075827151537
1782942150817023700,2.365023681640625,0.05596783012151718,-0.014983306638896465,0.025561604648828506
1782942150827008300,2.37500830078125,0.07194279879331589,-0.0187159925699234,0.03745394945144653
1782942150836993300,2.3849931640625,0.08032430708408356,-0.02977580577135086,0.0433834083378315
1782942150846978300,2.394978271484375,0.08775772154331207,-0.04618407413363457,0.05180325731635094
1782942150856963000,2.404963134765625,0.09649737924337387,-0.05287583917379379,0.06018604338169098
1782942150866948400,2.4149482421875,0.10581152141094208,-0.0567169152200222,0.06947222352027893
1782942150876933400,2.424933349609375,0.11035113781690598,-0.05817108228802681,0.0761372521519661
1782942150886918400,2.43491845703125,0.11067391186952591,-0.0495203360915184,0.08079272508621216
1782942150896903200,2.444903076171875,0.10936444997787476,-0.027481477707624435,0.08861728012561798
1782942150906888200,2.45488818359375,0.10780490189790726,-0.002454156056046486,0.0912809744477272
1782942150916873200,2.464873291015625,0.10767120867967606,0.015110696665942669,0.09846971184015274
1782942150926858200,2.474858154296875,0.11050215363502502,0.013584437780082226,0.08936463296413422
1782942150936843300,2.48484326171875,0.11283055692911148,0.005397642031311989,0.06951522827148438
1782942150946828300,2.494828369140625,0.11592701077461243,-0.010556290857493877,0.036365531384944916
1782942150956813300,2.504813232421875,0.11700614541769028,-0.01462031714618206,0.006786317098885775
1782942150966798300,2.51479833984375,0.10796791315078735,-0.0052712904289364815,-0.01812116429209709
1782942150976783400,2.524783447265625,0.09950225055217743,-0.0006445813924074173,-0.03621947020292282
1782942150986768100,2.53476806640625,0.09289015829563141,-0.004928009584546089,-0.0513177327811718
1782942150996753200,2.544753173828125,0.08236239850521088,-0.014985309913754463,-0.06368696689605713
1782942151006738200,2.55473828125,0.07028230279684067,-0.028003640472888947,-0.07277235388755798
1782942151016723200,2.56472314453125,0.04983721300959587,-0.021195296198129654,-0.07840806245803833
1782942151026708500,2.57470849609375,0.02721952088177204,-0.008020106703042984,-0.07817450165748596
1782942151036693200,2.584693359375,0.019555285573005676,0.0026529189199209213,-0.07410763204097748
1782942151046678300,2.59467822265625,0.015709146857261658,0.010082339867949486,-0.07299443334341049
1782942151056663300,2.604663330078125,0.018621284514665604,0.002771708182990551,-0.0736745223402977
1782942151066649000,2.614649169921875,0.024573981761932373,-0.015028061345219612,-0.06786217540502548
1782942151076634000,2.624634033203125,0.027376655489206314,-0.027301575988531113,-0.05953444167971611
1782942151086619100,2.634619140625,0.01682388037443161,-0.028586551547050476,-0.04685832932591438
1782942151096604400,2.6446044921875,0.0147599708288908,-0.023810340091586113,-0.037112317979335785
1782942151106589400,2.65458935546875,0.012223044410347939,-0.015381168574094772,-0.026633311063051224
1782942151116574200,2.66457421875,0.01004406251013279,-0.0050226617604494095,-0.01458071917295456
1782942151126559200,2.674559326171875,0.010937552899122238,0.008866255171597004,-0.0044828117825090885
1782942151136544300,2.684544189453125,0.01198621280491352,0.014732894487679005,0.002213896717876196
1782942151146529300,2.694529296875,0.015970567241311073,0.007729579694569111,-0.006381455808877945
1782942151156514000,2.70451416015625,0.01462386455386877,-0.002357148565351963,-0.02192363142967224
1782942151166499000,2.7144990234375,0.015158893540501595,-0.008823037147521973,-0.04286912828683853
1782942151176484400,2.724484375,0.013244867324829102,-0.010696948505938053,-0.06692864745855331
1782942151186469400,2.734469482421875,0.021750736981630325,-0.016896788030862808,-0.08502642810344696
1782942151196454400,2.744454345703125,0.02627861499786377,-0.014967339113354683,-0.09898629784584045
1782942151206439200,2.754439208984375,0.030768968164920807,-0.022148286923766136,-0.10900111496448517
1782942151216424200,2.764424072265625,0.026407308876514435,-0.021994832903146744,-0.10278168320655823
1782942151226409200,2.7744091796875,0.029480863362550735,-0.012547270394861698,-0.09112635254859924
1782942151236394200,2.784394287109375,0.03249846398830414,0.00039866194128990173,-0.06978829205036163
1782942151246379300,2.794379150390625,0.035601578652858734,0.016966186463832855,-0.03528996929526329
1782942151256364300,2.8043642578125,0.03682469204068184,0.03716578334569931,-0.008594460785388947
1782942151266349300,2.814349365234375,0.033374834805727005,0.05348829925060272,0.0119643434882164
1782942151276334300,2.824334228515625,0.028655236586928368,0.056688107550144196,0.012374968267977238
1782942151286319400,2.8343193359375,0.026187283918261528,0.04690098762512207,0.0016924967058002949
1782942151296304000,2.84430419921875,0.022855116054415703,0.025807226076722145,-0.024163391441106796
1782942151306289200,2.8542890625,0.02194644697010517,-0.0001972094178199768,-0.04796725511550903
1782942151316274200,2.864274169921875,0.02197367139160633,-0.0309673473238945,-0.06104820594191551
1782942151326259200,2.87425927734375,0.02113610878586769,-0.049286700785160065,-0.05696718022227287
1782942151336244200,2.884244140625,0.022465812042355537,-0.047583721578121185,-0.0461462177336216
1782942151346229200,2.894229248046875,0.01881808042526245,-0.036135055124759674,-0.026949884369969368
1782942151356214300,2.90421435546875,0.010890921577811241,-0.026205139234662056,-0.0064828298054635525
1782942151366199300,2.91419921875,0.005032765679061413,-0.012500778771936893,0.0020209099166095257
1782942151376184300,2.924184326171875,-0.004948026966303587,0.00014226138591766357,0.013068340718746185
1782942151386169000,2.934169189453125,-0.005027389619499445,-0.0035052038729190826,0.02357371151447296
1782942151396154000,2.944154052734375,0.004354436416178942,-0.0018877442926168442,0.02178310975432396
1782942151406140400,2.954140380859375,0.009166501462459564,0.003100622445344925,0.021567925810813904
1782942151416125200,2.964125244140625,0.013722380623221397,-0.0014604907482862473,0.01149830874055624
1782942151426110200,2.974110107421875,0.016797266900539398,-0.015653807669878006,-0.005167486611753702
1782942151436095200,2.98409521484375,0.01823190227150917,-0.04326155036687851,-0.028793513774871826
1782942151446080300,2.994080322265625,0.023117471486330032,-0.05486653745174408,-0.040576934814453125
1782942151456065300,3.004065185546875,0.017472580075263977,-0.05022943764925003,-0.04603671655058861
1782942151466050000,3.014050048828125,0.011936666443943977,-0.041998669505119324,-0.03764482960104942
1782942151476035300,3.024035400390625,0.008164848200976849,-0.026683732867240906,-0.023923568427562714
1782942151486020400,3.034020263671875,0.00883676391094923,-0.013582577928900719,-0.0037240232340991497
1782942151496005400,3.04400537109375,0.01563294231891632,-0.0056623416021466255,0.009534288197755814
1782942151505990100,3.053990234375,0.019400516524910927,0.0013316525146365166,0.019521143287420273
1782942151515975200,3.06397509765625,0.025941748172044754,0.0035746097564697266,0.02086152695119381
1782942151525960200,3.073960205078125,0.031241171061992645,0.006003411486744881,0.01496502198278904
1782942151535945200,3.0839453125,0.032386668026447296,0.00991648156195879,0.001957434229552746
1782942151545930200,3.09393017578125,0.03354887291789055,0.006677011959254742,-0.009341025725007057
1782942151555915300,3.103915283203125,0.03556746244430542,0.004530012607574463,-0.024757012724876404
1782942151565900300,3.113900390625,0.03632885962724686,-0.009004971943795681,-0.03994661942124367
1782942151575885300,3.12388525390625,0.034905970096588135,-0.023254945874214172,-0.06076563894748688
1782942151585870300,3.133870361328125,0.03747139126062393,-0.035132378339767456,-0.06669756770133972
1782942151595855400,3.14385546875,0.032249707728624344,-0.03529611974954605,-0.06983235478401184
1782942151605840100,3.153840087890625,0.031833723187446594,-0.029599085450172424,-0.06249108538031578
1782942151615825200,3.1638251953125,0.032231107354164124,-0.01001410000026226,-0.04994902014732361
1782942151625810200,3.17381005859375,0.03483940660953522,0.018343240022659302,-0.030919935554265976
1782942151635795500,3.18379541015625,0.03196768835186958,0.048109643161296844,-0.01205794420093298
1782942151645780200,3.1937802734375,0.024319622665643692,0.06636294722557068,-0.0051305294036865234
1782942151655765200,3.20376513671875,0.0208580382168293,0.0573909655213356,-0.021932275965809822
1782942151665750300,3.213750244140625,0.022826649248600006,0.019261958077549934,-0.04918467253446579
1782942151675735300,3.2237353515625,0.02150995470583439,-0.03180893138051033,-0.07890945672988892
1782942151685720300,3.23372021484375,0.02187294326722622,-0.07239976525306702,-0.09143830090761185
1782942151695705000,3.243705078125,0.019136585295200348,-0.08712375909090042,-0.09448131918907166
1782942151705690000,3.253690185546875,0.013859264552593231,-0.07628282904624939,-0.07841313630342484
1782942151715675400,3.26367529296875,0.014205962419509888,-0.05571484938263893,-0.0427292138338089
1782942151725661200,3.2736611328125,0.021176520735025406,-0.029157008975744247,-0.003235067706555128
1782942151735646200,3.283646240234375,0.027641935274004936,-0.013112534768879414,0.030889645218849182
1782942151745631200,3.29363134765625,0.03254987299442291,-0.006834931205958128,0.05432865768671036
1782942151755616300,3.3036162109375,0.032274432480335236,-0.0028197895735502243,0.06324409693479538
1782942151765601300,3.313601318359375,0.02677101269364357,-0.0075682057067751884,0.059423793107271194
1782942151775586300,3.32358642578125,0.02372732199728489,-0.01891983672976494,0.04192060977220535
1782942151785571300,3.3335712890625,0.031770069152116776,-0.03391742706298828,0.025073185563087463
1782942151795556400,3.343556396484375,0.03667372092604637,-0.049189601093530655,0.010217692703008652
1782942151805541400,3.353541259765625,0.041819214820861816,-0.0621139220893383,0.004661806393414736
1782942151815526100,3.363526123046875,0.047266218811273575,-0.06588456779718399,0.005224905908107758
1782942151825511200,3.37351123046875,0.056641075760126114,-0.05559251457452774,0.01577368751168251
1782942151835497000,3.3834970703125,0.06430719047784805,-0.03907327353954315,0.031875863671302795
1782942151845482000,3.39348193359375,0.06371942907571793,-0.021694280207157135,0.04566091671586037
1782942151855466800,3.403466796875,0.06399375200271606,-0.009893117472529411,0.04987895488739014
1782942151865451800,3.41345166015625,0.057500697672367096,-0.013467878103256226,0.03876877948641777
1782942151875436800,3.423436767578125,0.04916006699204445,-0.02450825273990631,0.019810527563095093
1782942151885422000,3.433422119140625,0.04153277352452278,-0.040885891765356064,-0.006853308063000441
1782942151895406800,3.44340673828125,0.036287322640419006,-0.055366821587085724,-0.019561590626835823
1782942151905391900,3.453391845703125,0.036870021373033524,-0.06512171030044556,-0.030452586710453033
1782942151915377000,3.463376953125,0.03726467117667198,-0.061836715787649155,-0.028243878856301308
1782942151925362000,3.47336181640625,0.04151427745819092,-0.05698869749903679,-0.016291078180074692
1782942151935347000,3.483346923828125,0.049405526369810104,-0.058881841599941254,-0.0020584361627697945
1782942151945331700,3.493331787109375,0.053927842527627945,-0.05062124878168106,0.010836590081453323
1782942151955316700,3.503316650390625,0.04939056932926178,-0.04382820799946785,0.020753096789121628
1782942151965302000,3.513302001953125,0.04035073518753052,-0.03419528901576996,0.023740097880363464
1782942151975287000,3.523287109375,0.03333091363310814,-0.0312977135181427,0.02373436838388443
1782942151985271800,3.533271728515625,0.029411807656288147,-0.021571850404143333,0.021959904581308365
1782942151995256800,3.5432568359375,0.03333254158496857,-0.011010276153683662,0.018877144902944565
1782942152005241900,3.553241943359375,0.03775046020746231,-0.004205100238323212,0.0176496934145689
1782942152015227000,3.563226806640625,0.04278407618403435,-0.007998489774763584,0.007973447442054749
1782942152025212000,3.5732119140625,0.05127130448818207,-0.015796758234500885,-0.008579163812100887
1782942152035198000,3.583197998046875,0.054934486746788025,-0.01976933889091015,-0.024463724344968796
1782942152045183000,3.593182861328125,0.05290196090936661,-0.02019437961280346,-0.034513428807258606
1782942152055168000,3.60316796875,0.04965667426586151,-0.02731611207127571,-0.0377521887421608
1782942152065152800,3.61315283203125,0.04731708765029907,-0.038222022354602814,-0.0402558296918869
1782942152075137800,3.6231376953125,0.04416997358202934,-0.034470126032829285,-0.0406588651239872
1782942152085122800,3.633122802734375,0.04028282314538956,-0.02590353786945343,-0.04416545107960701
1782942152095107800,3.64310791015625,0.04009906202554703,-0.005972733721137047,-0.04634331539273262
1782942152105092900,3.6530927734375,0.04473722726106644,0.005394170060753822,-0.044745150953531265
1782942152115078000,3.663077880859375,0.054312899708747864,0.0016032708808779716,-0.03420942649245262
1782942152125063000,3.67306298828125,0.06746704876422882,-0.008281051181256771,-0.015641067177057266
1782942152135048000,3.6830478515625,0.07762888818979263,-0.025542696937918663,0.002634463831782341
1782942152145033000,3.693032958984375,0.08621678501367569,-0.05118095129728317,0.014226404950022697
1782942152155017700,3.703017822265625,0.08772574365139008,-0.07345903664827347,0.007305245380848646
1782942152165002800,3.713002685546875,0.08825677633285522,-0.08905903249979019,0.003005838021636009
1782942152174987800,3.72298779296875,0.08695045858621597,-0.09484674036502838,-0.0046657719649374485
1782942152184972800,3.732972900390625,0.08229951560497284,-0.09986120462417603,-0.007014680188149214
1782942152194958000,3.7429580078125,0.07385304570198059,-0.11075495928525925,0.0009357775561511517
1782942152204942800,3.75294287109375,0.07455691695213318,-0.10569575428962708,0.004791236016899347
1782942152214928000,3.762927978515625,0.0709739476442337,-0.08876267075538635,0.012147655710577965
1782942152224913000,3.772912841796875,0.06986181437969208,-0.09469512850046158,0.01969052664935589
1782942152234898000,3.78289794921875,0.06994912028312683,-0.10253535956144333,0.024407213553786278
1782942152244883000,3.792883056640625,0.07098641991615295,-0.09823515266180038,0.036132846027612686
1782942152254867700,3.80286767578125,0.07738279551267624,-0.10388354957103729,0.044925808906555176
1782942152264852700,3.812852783203125,0.08156581968069077,-0.13027255237102509,0.04266558587551117
1782942152274838000,3.822838134765625,0.08364873379468918,-0.1449609398841858,0.037254005670547485
1782942152284823000,3.832822998046875,0.08268573880195618,-0.1445838361978531,0.031968697905540466
1782942152294807800,3.842807861328125,0.07959241420030594,-0.11666880548000336,0.026974637061357498
1782942152304792800,3.852792724609375,0.07671061158180237,-0.08759187906980515,0.020446430891752243
1782942152314777900,3.86277783203125,0.07191585749387741,-0.06614704430103302,0.015234357677400112
1782942152324763000,3.872762939453125,0.07111610472202301,-0.05643981695175171,0.012814342975616455
1782942152334748000,3.882747802734375,0.06834560632705688,-0.0532657653093338,0.0052372608333826065
1782942152344734000,3.89273388671875,0.06373567879199982,-0.05469774454832077,0.0033783745020627975
1782942152354719000,3.902718994140625,0.06617623567581177,-0.04140309989452362,0.0020463010296225548
1782942152364704000,3.9127041015625,0.06599727272987366,-0.03020503744482994,-0.004413995426148176
1782942152374688800,3.922688720703125,0.06728488951921463,-0.030432425439357758,-0.01190465409308672
1782942152384673800,3.932673828125,0.06855042278766632,-0.04575705528259277,-0.02487664297223091
1782942152394658800,3.942658935546875,0.06513762474060059,-0.05608150362968445,-0.03677227348089218
1782942152404643800,3.952643798828125,0.061453938484191895,-0.05537576600909233,-0.04096675291657448
1782942152414628900,3.96262890625,0.058308735489845276,-0.04698345810174942,-0.03939947858452797
1782942152424614000,3.97261376953125,0.06532829254865646,-0.03648580610752106,-0.031252335757017136
1782942152434599000,3.982598876953125,0.07273130863904953,-0.0282709039747715,-0.0160883367061615
1782942152444583000,3.9925830078125,0.07574174553155899,-0.01893838867545128,-0.005647146608680487
1782942152454568000,4.00256787109375,0.07373932003974915,-0.0004258742555975914,0.008404284715652466
1782942152464553000,4.012552978515625,0.06785134226083755,0.018181897699832916,0.011012584902346134
1782942152474537700,4.022537841796875,0.05788899213075638,0.025285962969064713,0.016674526035785675
1782942152484522800,4.032522705078125,0.048857681453228,0.023569554090499878,0.011364983394742012
1782942152494507800,4.0425078125,0.03893024101853371,0.017378488555550575,0.009615735150873661
1782942152504492800,4.052492919921875,0.03285770118236542,0.0004338594153523445,0.0031826035119593143
1782942152514478000,4.06247802734375,0.03051469288766384,-0.02927946299314499,-0.013618573546409607
1782942152524462800,4.072462890625,0.027289604768157005,-0.04515403136610985,-0.027373531833291054
1782942152534447900,4.08244775390625,0.019966887310147285,-0.03877526521682739,-0.03062373399734497
1782942152544433000,4.092432861328125,0.015073329210281372,-0.014666199684143066,-0.022344764322042465
1782942152554418000,4.10241796875,0.006818659603595734,0.01907532848417759,0.006157278548926115
1782942152564403000,4.11240283203125,-0.004678473342210054,0.06161719560623169,0.039174884557724
1782942152574387700,4.1223876953125,-0.01816638559103012,0.08988121896982193,0.058459606021642685
1782942152584372700,4.132372802734375,-0.02484745718538761,0.09576573967933655,0.04963389039039612
1782942152594358000,4.14235791015625,-0.023888643831014633,0.09223005175590515,0.012397924438118935
1782942152604343000,4.152343017578125,-0.021235601976513863,0.05917036533355713,-0.03758561238646507
1782942152614327800,4.162327880859375,-0.020406637340784073,0.025301162153482437,-0.09085877239704132
1782942152624312800,4.172312744140625,-0.021372830495238304,0.0016070185229182243,-0.1248612105846405
1782942152634297900,4.1822978515625,-0.03581518307328224,0.007708020508289337,-0.13733497262001038
1782942152644283000,4.192282958984375,-0.05319710448384285,0.025975441560149193,-0.13944020867347717
1782942152654268000,4.202267822265625,-0.0720897763967514,0.04820672422647476,-0.12594999372959137
1782942152664253000,4.2122529296875,-0.08534806221723557,0.05938534066081047,-0.11141473054885864
1782942152674239000,4.222239013671875,-0.0914430022239685,0.07043929398059845,-0.09156543761491776
1782942152684224000,4.23222412109375,-0.08421065658330917,0.06665387004613876,-0.07018185406923294
1782942152694208800,4.242208740234375,-0.07707709074020386,0.0580851286649704,-0.051886290311813354
1782942152704193800,4.25219384765625,-0.06674695014953613,0.061138443648815155,-0.03869511932134628
1782942152714178800,4.2621787109375,-0.06415834277868271,0.06684571504592896,-0.021986186504364014
1782942152724163800,4.272163818359375,-0.06414875388145447,0.06908249855041504,-0.011007837951183319
1782942152734148900,4.28214892578125,-0.06751074641942978,0.06339438259601593,-0.007576546166092157
1782942152744134000,4.2921337890625,-0.07321470230817795,0.055424343794584274,-0.01269061490893364
1782942152754119000,4.302118896484375,-0.08100336790084839,0.0376255102455616,-0.02221202291548252
1782942152764104000,4.31210400390625,-0.08280579745769501,0.03209385648369789,-0.030763700604438782
1782942152774089000,4.3220888671875,-0.08328651636838913,0.036735665053129196,-0.029908886179327965
1782942152784073700,4.33207373046875,-0.07632181793451309,0.03237766772508621,-0.016200797632336617
1782942152794058800,4.342058837890625,-0.05718904733657837,0.01390007697045803,0.009278746321797371
1782942152804043800,4.352043701171875,-0.03768005967140198,0.006386768072843552,0.02882421761751175
1782942152814029000,4.362029052734375,-0.02579871565103531,0.009269951842725277,0.04234454035758972
1782942152824013800,4.372013916015625,-0.02086867205798626,0.010039604268968105,0.038856327533721924
1782942152833998000,4.381998046875,-0.022031687200069427,0.015278998762369156,0.027993567287921906
1782942152843983400,4.3919833984375,-0.029429148882627487,0.027604108676314354,0.029485471546649933
1782942152853968400,4.401968505859375,-0.03430354595184326,0.032064229249954224,0.034853946417570114
1782942152863953400,4.411953369140625,-0.04192045331001282,0.03061467595398426,0.03565236181020737
1782942152873938400,4.4219384765625,-0.05000549927353859,0.03424793481826782,0.030589666217565536
1782942152883923200,4.431923095703125,-0.0511634424328804,0.03463035821914673,0.026001304388046265
1782942152893908200,4.441908203125,-0.046843014657497406,0.02990279346704483,0.016050616279244423
1782942152903893200,4.451893310546875,-0.032691776752471924,0.021944202482700348,0.009908834472298622
1782942152913878300,4.461878173828125,-0.02118188887834549,0.007468049414455891,0.009953726083040237
1782942152923863300,4.47186328125,-0.00648629991337657,-0.0006218347698450089,0.005773628130555153
1782942152933848300,4.481848388671875,0.003679255722090602,0.0036472398787736893,-0.007356357295066118
1782942152943833300,4.491833251953125,-0.003443901427090168,0.017055455595254898,-0.014043021947145462
1782942152953818400,4.501818359375,-0.01649414747953415,0.026051491498947144,-0.013440573588013649
1782942152963803400,4.511803466796875,-0.024760600179433823,0.053687117993831635,-0.023948075249791145
1782942152973789200,4.5217890625,-0.0469236895442009,0.07710884511470795,-0.03204228729009628
1782942152983774200,4.531774169921875,-0.07047322392463684,0.09335573017597198,-0.045292314141988754
1782942152993759500,4.541759521484375,-0.0801285058259964,0.0765475332736969,-0.052960559725761414
1782942153003744300,4.551744140625,-0.08518771827220917,0.08032149821519852,-0.05854680761694908
1782942153013729300,4.561729248046875,-0.07008394598960876,0.07067819684743881,-0.0657300353050232
1782942153023714300,4.57171435546875,-0.05036909133195877,0.05255565047264099,-0.06463867425918579
1782942153033699300,4.58169921875,-0.020668085664510727,0.03304845839738846,-0.06251432746648788
1782942153043684400,4.591684326171875,0.00826209969818592,0.01706096902489662,-0.05369154363870621
1782942153053669000,4.601669189453125,0.020450569689273834,0.012297205626964569,-0.03742268308997154
1782942153063654100,4.611654052734375,0.010606727562844753,0.011374952271580696,-0.021497778594493866
1782942153073639400,4.621639404296875,-0.004472122993320227,0.024016939103603363,-0.011853452771902084
1782942153083624400,4.63162451171875,-0.029266949743032455,0.04610120505094528,-0.019010964781045914
1782942153093609200,4.641609130859375,-0.052863869816064835,0.061643607914447784,-0.026279741898179054
1782942153103594200,4.65159423828125,-0.06834562867879868,0.06915745139122009,-0.028262732550501823
1782942153113579300,4.661579345703125,-0.07615242153406143,0.06070585176348686,-0.0253182053565979
1782942153123564300,4.671564208984375,-0.06950650364160538,0.03557253256440163,-0.01899745687842369
1782942153133549300,4.68154931640625,-0.06149732694029808,0.007149276323616505,-0.012450799345970154
1782942153143534000,4.6915341796875,-0.05228598415851593,-0.005911664571613073,-0.002543041482567787
1782942153153519400,4.701519287109375,-0.0489618256688118,0.0039950283244252205,0.0002567395567893982
1782942153163504400,4.71150439453125,-0.04917008429765701,0.018152393400669098,0.0036418838426470757
1782942153173489400,4.721489501953125,-0.050999902188777924,0.0353701189160347,0.0032102931290864944
1782942153183474200,4.73147412109375,-0.05891960859298706,0.058983832597732544,0.010611483827233315
1782942153193459200,4.741459228515625,-0.06334982067346573,0.07430914044380188,0.009760229848325253
1782942153203444200,4.7514443359375,-0.07004740834236145,0.06093687564134598,0.011219908483326435
1782942153213429200,4.76142919921875,-0.0749414786696434,0.048330433666706085,0.0018265293911099434
1782942153223414300,4.771414306640625,-0.07790237665176392,0.026070669293403625,-0.0020595556125044823
1782942153233399300,4.7813994140625,-0.07779993861913681,0.0022614020854234695,-0.008886514231562614
1782942153243384300,4.79138427734375,-0.07759993523359299,-0.007022110745310783,-0.016123387962579727
1782942153253369300,4.801369384765625,-0.0727992057800293,-0.00490966159850359,-0.02395581267774105
1782942153263355100,4.811355224609375,-0.06611067801713943,-0.00430858600884676,-0.024329455569386482
1782942153273340200,4.821340087890625,-0.06110045686364174,-0.006667446345090866,-0.02250746451318264
1782942153283325200,4.8313251953125,-0.0676821917295456,-0.012126926332712173,-0.020448042079806328
1782942153293310500,4.841310546875,-0.08022360503673553,-0.008333515375852585,-0.0135329095646739
1782942153303295500,4.85129541015625,-0.10150199383497238,0.014122257940471172,-0.0023300563916563988
1782942153313280300,4.8612802734375,-0.11796941608190536,0.05668485909700394,0.0010995143093168736
1782942153323265300,4.871265380859375,-0.11769590526819229,0.10465212166309357,0.0045802658423781395
1782942153333250300,4.881250244140625,-0.10623706132173538,0.14935900270938873,-0.0013389182277023792
1782942153343235300,4.8912353515625,-0.07957562059164047,0.18493910133838654,-0.013476008549332619
1782942153353220400,4.901220458984375,-0.053025491535663605,0.2050444632768631,-0.02531982585787773
1782942153363205000,4.911205078125,-0.05358076095581055,0.20941151678562164,-0.009935807436704636
1782942153373190400,4.9211904296875,-0.04236965626478195,0.17989645898342133,0.02084401063621044
1782942153383175400,4.931175537109375,-0.012954509817063808,0.11597128212451935,0.05920498073101044
1782942153393160400,4.941160400390625,0.007619177922606468,0.034372005611658096,0.08803225308656693
1782942153403145200,4.951145263671875,0.008365130051970482,-0.027370717376470566,0.12361874431371689
1782942153413130200,4.961130126953125,0.011462146416306496,-0.07795721292495728,0.13927936553955078
1782942153423115300,4.971115234375,0.006867661606520414,-0.10773401707410812,0.1385027915239334
1782942153433100300,4.981100341796875,0.0026718094013631344,-0.11950583755970001,0.1276250034570694
1782942153443085300,4.991085205078125,0.003874759189784527,-0.10518309473991394,0.10242831707000732
1782942153453070300,5.0010703125,0.022293459624052048,-0.0621873140335083,0.06004835665225983
1782942153463055400,5.011055419921875,0.054598934948444366,-0.0018568644300103188,-0.0012102052569389343
1782942153473040400,5.021040283203125,0.07779538631439209,0.06616094708442688,-0.07086088508367538
1782942153483025400,5.031025390625,0.09377513825893402,0.1111912727355957,-0.13380415737628937
1782942153493010200,5.04101025390625,0.09367312490940094,0.12934564054012299,-0.18530510365962982
1782942153502995200,5.0509951171875,0.07975251972675323,0.12335805594921112,-0.2221616506576538
1782942153512980200,5.060980224609375,0.06345577538013458,0.11689874529838562,-0.24121585488319397
1782942153522965200,5.07096533203125,0.0468757338821888,0.08943250775337219,-0.23284633457660675
1782942153532950500,5.080950439453125,0.025806929916143417,0.04716968536376953,-0.19803257286548615
1782942153542935300,5.090935302734375,0.013844008557498455,0.002845095470547676,-0.14690174162387848
1782942153552921300,5.10092138671875,0.014992659911513329,-0.02749013714492321,-0.08749162405729294
1782942153562906400,5.11090625,0.025279652327299118,-0.04385792464017868,-0.03322279453277588
1782942153572891100,5.12089111328125,0.03828362748026848,-0.04453654587268829,-0.004270519129931927
1782942153582876200,5.130876220703125,0.045176420360803604,-0.027323203161358833,0.0008171838708221912
1782942153592861200,5.140861083984375,0.03848225623369217,0.0016231080517172813,-0.009474177844822407
1782942153602846500,5.150846435546875,0.02766476199030876,0.04694425314664841,-0.033917468041181564
1782942153612831200,5.160831298828125,0.023841004818677902,0.08109723776578903,-0.060488034039735794
1782942153622816300,5.170816162109375,0.029820334166288376,0.1023724377155304,-0.08508152514696121
1782942153632801300,5.18080126953125,0.043021395802497864,0.10749541223049164,-0.09742596745491028
1782942153642786300,5.190786376953125,0.06181825324892998,0.08057697862386703,-0.10352940112352371
1782942153652771300,5.200771240234375,0.07575184851884842,0.03790457174181938,-0.11375423520803452
1782942153662756000,5.210756103515625,0.07903366535902023,0.004632902331650257,-0.13609576225280762
1782942153672741400,5.220741455078125,0.069893479347229,-0.01756167970597744,-0.15207137167453766
1782942153682726400,5.230726318359375,0.054191749542951584,-0.024640629068017006,-0.16102305054664612
1782942153692711400,5.24071142578125,0.03952222317457199,-0.02363590896129608,-0.16618043184280396
1782942153702696400,5.250696533203125,0.02662879228591919,-0.019999096170067787,-0.16467735171318054
1782942153712681200,5.26068115234375,0.023123078048229218,-0.011593790724873543,-0.14882831275463104
1782942153722666200,5.270666259765625,0.01771765947341919,0.003975582309067249,-0.12465294450521469
1782942153732651300,5.2806513671875,0.010634947568178177,0.029759734869003296,-0.1051943376660347
1782942153742636300,5.29063623046875,0.0023993884678930044,0.05095529928803444,-0.09506101161241531
1782942153752621300,5.300621337890625,-0.002423599362373352,0.05679985135793686,-0.08710447698831558
1782942153762606300,5.3106064453125,0.00028510158881545067,0.057068824768066406,-0.0886475145816803
1782942153772591400,5.32059130859375,0.0037716892547905445,0.048386432230472565,-0.0855845957994461
1782942153782576400,5.330576416015625,0.009844494983553886,0.019280480220913887,-0.07104666531085968
1782942153792561400,5.3405615234375,0.014038976281881332,-0.014653224498033524,-0.053911156952381134
1782942153802546200,5.350546142578125,0.015154842287302017,-0.042097099125385284,-0.03283436596393585
1782942153812531200,5.36053125,0.011030178517103195,-0.05424871668219566,-0.014310112223029137
1782942153822516200,5.37051611328125,0.005892408546060324,-0.047628361731767654,0.0004605795256793499
1782942153832501000,5.3805009765625,0.0003085257485508919,-0.030812401324510574,0.0019670831970870495
1782942153842486800,5.39048681640625,-0.013422733172774315,-0.012786530889570713,0.006493125110864639
1782942153852471800,5.400471923828125,-0.03534606844186783,0.006233636289834976,0.018072504550218582
1782942153862457000,5.41045703125,-0.06585736572742462,0.024928759783506393,0.03208605945110321
1782942153872442000,5.420442138671875,-0.08900213241577148,0.02784578874707222,0.047310762107372284
1782942153882427000,5.430427001953125,-0.10847648978233337,0.01761525496840477,0.06848076730966568
1782942153892412000,5.440411865234375,-0.11237537860870361,-0.009344651363790035,0.08903339505195618
1782942153902397000,5.45039697265625,-0.1072693020105362,-0.03623858094215393,0.10476255416870117
1782942153912382000,5.4603818359375,-0.09208373725414276,-0.04413018375635147,0.11233754456043243
1782942153922367000,5.470366943359375,-0.07884596288204193,-0.053960442543029785,0.11239346861839294
1782942153932351700,5.480351806640625,-0.06390722841024399,-0.04277421161532402,0.08768146485090256
1782942153942337000,5.4903369140625,-0.04157023876905441,-0.016514910385012627,0.047596633434295654
1782942153952322000,5.500322021484375,-0.021066762506961823,0.006371544674038887,0.010858221910893917
1782942153962307000,5.51030712890625,-0.002909598406404257,0.033800773322582245,-0.0015736809000372887
1782942153972291800,5.520291748046875,0.00995662622153759,0.06343207508325577,0.011458322405815125
1782942153982276900,5.53027685546875,0.0043618567287921906,0.08748547732830048,0.04351133108139038
1782942153992262000,5.540261962890625,-0.00862879864871502,0.08780856430530548,0.07906188070774078
1782942154002247000,5.550246826171875,-0.025944139808416367,0.06440337002277374,0.10915320366621017
1782942154012232000,5.56023193359375,-0.04722141474485397,0.03429363667964935,0.12663482129573822
1782942154022217000,5.570217041015625,-0.06073109433054924,-0.002718706615269184,0.12185605615377426
1782942154032202000,5.580201904296875,-0.07328523695468903,-0.03888251632452011,0.10295013338327408
1782942154042187000,5.59018701171875,-0.07996470481157303,-0.06327919661998749,0.07376854866743088
1782942154052172000,5.600172119140625,-0.08652731776237488,-0.07103287428617477,0.04437652975320816
1782942154062156800,5.61015673828125,-0.08377014100551605,-0.06554090976715088,0.018516704440116882
1782942154072141800,5.620141845703125,-0.07444798201322556,-0.04334717616438866,-0.006907314993441105
1782942154082126800,5.630126953125,-0.05882614478468895,-0.0036695385351777077,-0.02086121402680874
1782942154092112000,5.64011181640625,-0.03741462528705597,0.040105629712343216,-0.030466018244624138
1782942154102097200,5.65009716796875,-0.023142213001847267,0.07552514225244522,-0.03822114318609238
1782942154112082000,5.66008203125,-0.011371538043022156,0.0961601734161377,-0.03732128441333771
1782942154122067000,5.67006689453125,-0.005487816873937845,0.0775555968284607,-0.02812006324529648
1782942154132053000,5.680052978515625,0.0024976502172648907,0.032561562955379486,-0.019513312727212906
1782942154142037800,5.690037841796875,0.000525312963873148,-0.00682685524225235,-0.014609633944928646
1782942154152022800,5.700022705078125,-0.008939506486058235,-0.019854802638292313,-0.014745356515049934
1782942154162007800,5.7100078125,-0.022852392867207527,-0.014697590842843056,-0.02108660899102688
1782942154171993000,5.7199931640625,-0.041890598833560944,-0.009265860542654991,-0.03459831699728966
1782942154181978000,5.72997802734375,-0.057478077709674835,0.0029383422806859016,-0.03749077394604683
1782942154191963000,5.739962890625,-0.07168261706829071,0.016675341874361038,-0.03911115229129791
1782942154201948000,5.749947998046875,-0.07921217381954193,0.02692371793091297,-0.02537429891526699
1782942154211933000,5.759932861328125,-0.07109854370355606,0.03599139302968979,-0.007225882261991501
1782942154221918000,5.76991796875,-0.06259826570749283,0.03566249459981918,0.009303559549152851
1782942154231902700,5.77990283203125,-0.051960788667201996,0.029146939516067505,0.019282612949609756
1782942154241887700,5.7898876953125,-0.04066232964396477,0.015496643260121346,0.014048437587916851
1782942154251873000,5.799873046875,-0.02832121215760708,-0.0019145859405398369,0.004826093092560768
1782942154261858000,5.809858154296875,-0.021387405693531036,-0.018471725285053253,-0.007507537957280874
1782942154271843000,5.819843017578125,-0.022238852456212044,-0.025847123935818672,-0.017795374616980553
1782942154281827800,5.829827880859375,-0.031078414991497993,-0.013943593017756939,-0.02319200523197651
1782942154291812900,5.839812744140625,-0.031146101653575897,0.002350839786231518,-0.026814278215169907
1782942154301798000,5.8497978515625,-0.03369661048054695,0.01689010113477707,-0.02797514945268631
1782942154311783000,5.859782958984375,-0.0340888537466526,0.017831619828939438,-0.026419423520565033
1782942154321767700,5.869767578125,-0.031996674835681915,0.01499002706259489,-0.018192116171121597
1782942154331753000,5.8797529296875,-0.026322560384869576,0.005851517431437969,-0.008347401395440102
1782942154341738000,5.889738037109375,-0.02050621621310711,-0.005309257656335831,0.008846499025821686
1782942154351723000,5.899722900390625,-0.018575921654701233,-0.00043853651732206345,0.02024240978062153
1782942154361708000,5.9097080078125,-0.01290312223136425,0.00905589945614338,0.03043273091316223
1782942154371692800,5.91969287109375,-0.005932044703513384,0.025909069925546646,0.037033647298812866
1782942154381677800,5.929677734375,-0.004981296602636576,0.032583218067884445,0.04182014986872673
1782942154391662800,5.939662841796875,-0.006522180046886206,0.038723863661289215,0.04267507791519165
1782942154401647900,5.94964794921875,-0.005759183783084154,0.031190315261483192,0.04084867984056473
1782942154411633000,5.9596328125,-0.004422558471560478,0.025372765958309174,0.03557862713932991
1782942154421619000,5.969618896484375,-0.005658797919750214,0.031104419380426407,0.027845339849591255
1782942154431604000,5.97960400390625,-0.007831119932234287,0.03894893079996109,0.01631450653076172
1782942154441589000,5.989589111328125,-0.007557347416877747,0.036690566688776016,0.008730355650186539
1782942154451573800,5.99957373046875,-0.006331275682896376,0.033604320138692856,0.004527651239186525
1782942154461558800,6.009558837890625,-0.003092871978878975,0.02182622253894806,0.011322706937789917
1782942154471544000,6.0195439453125,-0.001543436199426651,0.01292682159692049,0.026029808446764946
1782942154481529000,6.029529052734375,-0.000804143026471138,0.0024877628311514854,0.04993114620447159
1782942154491513900,6.039513916015625,-0.004725922364741564,-0.003824012354016304,0.07718880474567413
1782942154501499000,6.049498779296875,-0.0074370200745761395,-0.0015989411622285843,0.08140379190444946
1782942154511484000,6.05948388671875,-0.003748518880456686,0.0041212160140275955,0.07937098294496536
1782942154521469000,6.069468994140625,0.0034116560127586126,0.01803676411509514,0.06244100630283356
1782942154531454000,6.079453857421875,0.0025828429497778416,0.027703948318958282,0.04510844498872757
1782942154541438700,6.089438720703125,0.00021129800006747246,0.035479847341775894,0.03429654240608215
1782942154551424000,6.099424072265625,-0.005419695284217596,0.02737286314368248,0.03510254994034767
1782942154561409000,6.109408935546875,-0.0056212968192994595,0.010603203438222408,0.04430456832051277
1782942154571394000,6.11939404296875,-0.008911632001399994,-0.010085828602313995,0.06078394502401352
1782942154581378800,6.12937890625,-0.008896451443433762,-0.010396885685622692,0.08010624349117279
1782942154591363800,6.13936376953125,-0.006159249227494001,-0.0028188060969114304,0.10209422558546066
1782942154601348900,6.149348876953125,-0.00639387359842658,0.010099655017256737,0.10978064686059952
1782942154611334000,6.159333984375,-0.010330544784665108,0.022898413240909576,0.10630940645933151
1782942154621319000,6.16931884765625,-0.016150083392858505,0.03800838813185692,0.0918058305978775
1782942154631304000,6.179303955078125,-0.019798090681433678,0.056381188333034515,0.06793212890625
1782942154641289000,6.1892890625,-0.021113958209753036,0.06956011056900024,0.052138518542051315
1782942154651274000,6.19927392578125,-0.01399659737944603,0.0751647800207138,0.05041880905628204
1782942154661259000,6.209259033203125,-0.0030110590159893036,0.0772542953491211,0.056561123579740524
1782942154671244000,6.219244140625,0.01152152381837368,0.066631019115448,0.07132723927497864
1782942154681228800,6.229228759765625,0.022396540269255638,0.04973112791776657,0.08339162170886993
1782942154691213800,6.2392138671875,0.030035551637411118,0.0146477110683918,0.09264610707759857
1782942154701198800,6.24919873046875,0.03515308350324631,-0.01071117538958788,0.09167032688856125
1782942154711185000,6.259184814453125,0.03823406249284744,-0.027519486844539642,0.08295028656721115
1782942154721170000,6.269169921875,0.04073077440261841,-0.02834400162100792,0.06152302771806717
1782942154731155000,6.279155029296875,0.03490694984793663,-0.010371880605816841,0.041157316416502
1782942154741140000,6.289139892578125,0.020209765061736107,0.015834424644708633,0.02303903177380562
1782942154751124700,6.299124755859375,0.005632162559777498,0.04051268845796585,0.013247715309262276
1782942154761109800,6.30910986328125,-0.006869248580187559,0.062257397919893265,0.010635153390467167
1782942154771095000,6.319094970703125,-0.008719312027096748,0.07014388591051102,0.004392683040350676
1782942154781080000,6.329080078125,0.007227962836623192,0.05773887783288956,0.004274438600987196
1782942154791065000,6.339065185546875,0.024475134909152985,0.03167913109064102,0.009502816945314407
1782942154801049900,6.3490498046875,0.03912784904241562,0.0022882185876369476,0.01909818686544895
1782942154811035000,6.359034912109375,0.051615651696920395,-0.02653512731194496,0.024823999032378197
1782942154821020000,6.36902001953125,0.056254610419273376,-0.04902791976928711,0.03097430244088173
1782942154831009000,6.379009033203125,0.049887578934431076,-0.06609005481004715,0.03349808230996132
1782942154840994000,6.388994140625,0.040852803736925125,-0.07346967607736588,0.032629091292619705
1782942154850979000,6.39897900390625,0.033304572105407715,-0.06313534826040268,0.030686337500810623
1782942154860964000,6.408964111328125,0.024646900594234467,-0.0392952635884285,0.03078008070588112
1782942154870949000,6.41894921875,0.013971377164125443,-0.003511739894747734,0.028441544622182846
1782942154880934000,6.428933837890625,0.0036098165437579155,0.030473658815026283,0.01258508488535881
1782942154890919000,6.4389189453125,-0.003183359280228615,0.060549672693014145,-0.00326719181612134
1782942154900904000,6.448904052734375,-0.003720252774655819,0.07456429302692413,-0.010987428948283195
1782942154910889000,6.458888916015625,0.0009660518262535334,0.062481507658958435,-0.008624102920293808
1782942154920874200,6.468874267578125,0.0030992438551038504,0.040644653141498566,0.005420343019068241
1782942154930859000,6.47885888671875,0.004011659882962704,0.008107115514576435,0.024199744686484337
1782942154940844000,6.488843994140625,0.0016888510435819626,-0.013565956614911556,0.043747082352638245
1782942154950829000,6.4988291015625,0.00040015019476413727,-0.02286462113261223,0.05047762021422386
1782942154960814000,6.50881396484375,0.0027125729247927666,-0.01186896301805973,0.04687276482582092
1782942154970798800,6.518798828125,0.00657648965716362,-0.0014494424685835838,0.03492793068289757
1782942154980783900,6.528783935546875,0.006747464649379253,0.022811690345406532,0.015849309042096138
1782942154990770200,6.538770263671875,0.0060380594804883,0.03632650151848793,-0.0003444794565439224
1782942155000755000,6.5487548828125,-0.0007226411253213882,0.032085418701171875,-0.01483766920864582
1782942155010740000,6.558739990234375,-0.00777309387922287,0.02573031559586525,-0.025211481377482414
1782942155020725000,6.56872509765625,-0.02196854166686535,0.003849252127110958,-0.01905132085084915
1782942155030710000,6.5787099609375,-0.016627859324216843,-0.018525753170251846,-0.011371619068086147
1782942155040695000,6.588695068359375,-0.006941142026335001,-0.02391625940799713,0.004562073852866888
1782942155050679800,6.5986796875,0.0058130621910095215,-0.039764974266290665,0.020460043102502823
1782942155060664800,6.608664794921875,0.007943591102957726,-0.03456568345427513,0.022838246077299118
1782942155070650000,6.618650146484375,0.007287869229912758,-0.030338123440742493,0.024926796555519104
1782942155080635100,6.62863525390625,0.019890479743480682,-0.0042535243555903435,0.02531428635120392
1782942155090620200,6.6386201171875,0.03226514533162117,0.018269555643200874,0.027523431926965714
1782942155100605000,6.64860498046875,0.035831648856401443,0.033204562962055206,0.030347980558872223
1782942155110590000,6.65858984375,0.026885272935032845,0.030302587896585464,0.023924382403492928
1782942155120575000,6.668574951171875,0.02079169452190399,0.012346223928034306,0.00865541398525238
1782942155130560000,6.67856005859375,0.026356112211942673,-0.013897547498345375,-0.004748481325805187
1782942155140544800,6.688544677734375,0.04639480262994766,-0.039401575922966,-0.014737199060618877
1782942155150530000,6.698530029296875,0.06062113121151924,-0.054417386651039124,-0.007595391944050789
1782942155160515000,6.70851513671875,0.05867249518632889,-0.05495081841945648,0.013773545622825623
1782942155170500000,6.7185,0.04131665080785751,-0.04628535360097885,0.03377622738480568
1782942155180485000,6.728485107421875,0.027540385723114014,-0.021878011524677277,0.04325015842914581
1782942155190470000,6.738469970703125,0.019922692328691483,0.006122305989265442,0.03891958296298981
1782942155200455000,6.748454833984375,0.01985105313360691,0.02735648676753044,0.019671320915222168
1782942155210440000,6.75843994140625,0.01335315965116024,0.03535053879022598,-0.004190972074866295
1782942155220425000,6.768425048828125,0.005246496759355068,0.01963016763329506,-0.022825907915830612
1782942155230410000,6.778409912109375,0.0007063881494104862,0.029171165078878403,-0.030837927013635635
1782942155240395000,6.78839501953125,-0.0066218324936926365,0.06679950654506683,-0.02387935295701027
1782942155250380000,6.798380126953125,-0.014287447556853294,0.0892033576965332,-0.006966033950448036
1782942155260365000,6.808364990234375,-0.02942139282822609,0.07143421471118927,0.014727011322975159
1782942155270350000,6.81835009765625,-0.05300157144665718,0.020298156887292862,0.027814194560050964
1782942155280334800,6.8283349609375,-0.0709582045674324,-0.029856890439987183,0.02520802617073059
1782942155290321200,6.838321044921875,-0.06915971636772156,-0.04911450669169426,0.0027568782679736614
1782942155300306200,6.84830615234375,-0.0440002977848053,-0.060865968465805054,-0.03490235283970833
1782942155310291000,6.858291015625,-0.00890045240521431,-0.0756787434220314,-0.06836245208978653
1782942155320276000,6.86827587890625,0.016528740525245667,-0.08285170048475266,-0.08885068446397781
1782942155330261000,6.878260986328125,0.021375734359025955,-0.0792137086391449,-0.09150814265012741
1782942155340246000,6.88824609375,0.01352153904736042,-0.07393238693475723,-0.07919289171695709
1782942155350231000,6.89823095703125,0.006429759785532951,-0.06553750485181808,-0.049413859844207764
1782942155360215800,6.9082158203125,-0.011041909456253052,-0.03192282095551491,-0.015706492587924004
1782942155370201000,6.918201171875,-0.02753877453505993,-0.016564901918172836,0.001451069489121437
1782942155380186000,6.92818603515625,-0.033467769622802734,-0.019384389743208885,0.0010025929659605026
1782942155390171100,6.938171142578125,-0.034310370683670044,-0.020411109551787376,-0.009928030893206596
1782942155400156000,6.948156005859375,-0.02816353179514408,-0.017808401957154274,-0.03553219512104988
1782942155410141000,6.958140869140625,-0.020555712282657623,-0.017476879060268402,-0.06314069777727127
1782942155420126000,6.9681259765625,0.0011399949435144663,-0.006098524201661348,-0.09127965569496155
1782942155430111000,6.978111083984375,0.016535667702555656,0.03620094805955887,-0.09183855354785919
1782942155440096000,6.988095947265625,0.013440275564789772,0.10234986990690231,-0.09017834067344666
1782942155450081000,6.9980810546875,0.0020390423014760017,0.1529563069343567,-0.08241237699985504
1782942155460066000,7.008066162109375,-0.0029655699618160725,0.17996342480182648,-0.0819748193025589
1782942155470051000,7.018051025390625,-0.002580698113888502,0.1785459816455841,-0.09679660201072693
1782942155480036000,7.0280361328125,-0.02821388840675354,0.222488135099411,-0.0234595388174057
1782942155490020900,7.038020751953125,-0.057917483150959015,0.047263093292713165,0.005487972870469093
1782942155500006000,7.048005859375,-0.04494069516658783,-0.07509370893239975,-0.02220943570137024
1782942155509991000,7.057990966796875,-0.004848386161029339,-0.12017500400543213,-0.05577020347118378
1782942155519976000,7.067975830078125,0.02862355299293995,-0.1551380455493927,-0.06478632986545563
1782942155529961200,7.077961181640625,0.031179582700133324,-0.17733751237392426,-0.032673031091690063
1782942155539946000,7.087946044921875,0.02298317290842533,-0.202240988612175,0.0304244477301836
1782942155549931000,7.097930908203125,0.02567858062684536,-0.26877719163894653,0.09719094634056091
