time,seconds_elapsed,z,y,x
1782942166097608700,0.081608642578125,0.0042829327285289764,-0.03206506744027138,0.046518098562955856
1782942166107593700,0.09159375,-0.005658913403749466,-0.016510875895619392,0.059316184371709824
1782942166117578800,0.101578857421875,-0.0055976491421461105,-0.0031584501266479492,0.053362879902124405
1782942166127563800,0.111563720703125,-0.00818437710404396,0.0011292388662695885,0.03978422284126282
1782942166137548800,0.121548828125,-0.007623761426657438,0.007293607108294964,0.026303023099899292
1782942166147534800,0.131534912109375,-0.004502803552895784,0.0026953918859362602,0.01877293363213539
1782942166157520000,0.141519775390625,-0.011478402651846409,-0.008999423123896122,0.01877245493233204
1782942166167505000,0.1515048828125,-0.021953679621219635,-0.01834498718380928,0.03550456464290619
1782942166177489700,0.16148974609375,-0.031175756826996803,-0.02584855630993843,0.05805426463484764
1782942166187474700,0.171474609375,-0.04519597068428993,-0.0297575443983078,0.07358609139919281
1782942166197459700,0.181459716796875,-0.05053314194083214,-0.023284515365958214,0.07854325324296951
1782942166207444700,0.19144482421875,-0.05428260937333107,-0.003826395608484745,0.0765775740146637
1782942166217429800,0.2014296875,-0.05317956209182739,0.022389329969882965,0.06387592107057571
1782942166227414800,0.211414794921875,-0.051094576716423035,0.04979858174920082,0.050404056906700134
1782942166237399800,0.22139990234375,-0.03915804624557495,0.06250583380460739,0.03497045114636421
1782942166247384800,0.231384765625,-0.02549576386809349,0.055655915290117264,0.023873325437307358
1782942166257369900,0.241369873046875,-0.010660579428076744,0.016154581680893898,0.018109682947397232
1782942166267354600,0.251354736328125,-0.0023674960248172283,-0.02835456281900406,0.025481844320893288
1782942166277339600,0.261339599609375,0.007963409647345543,-0.05889308452606201,0.037849318236112595
1782942166287324700,0.27132470703125,0.004121799953281879,-0.07235616445541382,0.05459580942988396
1782942166297309700,0.281309814453125,0.0009159056935459375,-0.07212665677070618,0.06280818581581116
1782942166307294700,0.291294677734375,0.002881052438169718,-0.046284936368465424,0.06676723808050156
1782942166317279700,0.30127978515625,0.00791783258318901,-0.008766479790210724,0.061405666172504425
1782942166327264800,0.3112646484375,0.016747809946537018,0.019909638911485672,0.050348490476608276
1782942166337250800,0.321250732421875,0.02676055207848549,0.0368855856359005,0.03380982205271721
1782942166347235600,0.331235595703125,0.036307454109191895,0.044218599796295166,0.02034701034426689
1782942166357220600,0.341220703125,0.04256269335746765,0.038285449147224426,0.0049281008541584015
1782942166367206000,0.351205810546875,0.046438656747341156,0.0218348391354084,0.010733791626989841
1782942166377191000,0.36119091796875,0.04847042262554169,0.005119406618177891,0.023045025765895844
1782942166387175700,0.37117578125,0.0453776940703392,-0.01188647374510765,0.04006795212626457
1782942166397160700,0.38116064453125,0.04077276587486267,-0.020589560270309448,0.051244013011455536
1782942166407145700,0.391145751953125,0.038855552673339844,-0.025609619915485382,0.060156017541885376
1782942166417130800,0.401130859375,0.038013216108083725,-0.024120936170220375,0.0645831748843193
1782942166427115800,0.41111572265625,0.03334309533238411,-0.025615235790610313,0.06069868803024292
1782942166437100500,0.4211005859375,0.02929721027612686,-0.034625642001628876,0.05259689316153526
1782942166447085800,0.4310859375,0.018670665100216866,-0.03820253536105156,0.04347982630133629
1782942166457070800,0.44107080078125,0.009594108909368515,-0.030097680166363716,0.03189559280872345
1782942166467055900,0.451055908203125,0.001161476131528616,-0.016124073415994644,0.023807305842638016
1782942166477040600,0.46104052734375,-0.012019818648695946,0.005489559844136238,0.02409544587135315
1782942166487025700,0.471025634765625,-0.024996338412165642,0.024742882698774338,0.0309568140655756
1782942166497010700,0.4810107421875,-0.04069303721189499,0.04879918321967125,0.04014972969889641
1782942166506995700,0.49099560546875,-0.048603955656290054,0.06254535168409348,0.04702680930495262
1782942166516980700,0.500980712890625,-0.051840268075466156,0.07002734392881393,0.04920530319213867
1782942166526966800,0.510966796875,-0.04953370243310928,0.06906408071517944,0.05077843368053436
1782942166536951800,0.520951904296875,-0.04622391238808632,0.06240689754486084,0.05612052232027054
1782942166546936800,0.530936767578125,-0.03986614942550659,0.061406880617141724,0.06777957826852798
1782942166556921600,0.540921630859375,-0.036059390753507614,0.046927887946367264,0.06818801909685135
1782942166566906600,0.55090673828125,-0.03322312608361244,0.032853614538908005,0.059860844165086746
1782942166576891600,0.5608916015625,-0.02840578556060791,0.018887437880039215,0.05019953101873398
1782942166586876700,0.570876708984375,-0.023079728707671165,0.020016349852085114,0.03243864327669144
1782942166596862000,0.580862060546875,-0.01896962709724903,0.02343102917075157,0.020178548991680145
1782942166606846700,0.5908466796875,-0.016411660239100456,0.030984554439783096,0.005655267275869846
1782942166616831700,0.600831787109375,-0.009239773266017437,0.043904293328523636,0.0018177879974246025
1782942166626816800,0.610816650390625,-0.0012388383038342,0.057272832840681076,0.0058681899681687355
1782942166636801800,0.6208017578125,0.018515674397349358,0.04480105638504028,0.015439801849424839
1782942166646786800,0.630786865234375,0.033128440380096436,0.018358264118433,0.024396013468503952
1782942166656771600,0.640771484375,0.04781579226255417,-0.005828081630170345,0.03807000070810318
1782942166666756600,0.650756591796875,0.0617811419069767,-0.039142362773418427,0.047560177743434906
1782942166676742000,0.660741943359375,0.0742492526769638,-0.06000599265098572,0.05592184513807297
1782942166686727000,0.670726806640625,0.07221486419439316,-0.07212923467159271,0.05549653619527817
1782942166696711700,0.680711669921875,0.07277411222457886,-0.07643681764602661,0.056128717958927155
1782942166706696700,0.69069677734375,0.06345357745885849,-0.06396230310201645,0.05538862571120262
1782942166716681700,0.700681640625,0.04956308379769325,-0.042160894721746445,0.046291984617710114
1782942166726667500,0.71066748046875,0.029969407245516777,-0.0006952118128538132,0.030954573303461075
1782942166736652800,0.72065283203125,0.00923403911292553,0.04529976099729538,0.01216983050107956
1782942166746637800,0.730637939453125,-0.006462365388870239,0.07686834037303925,-0.008531985804438591
1782942166756622800,0.740622802734375,-0.009740457870066166,0.09190473705530167,-0.02306039072573185
1782942166766608000,0.75060791015625,-0.011553005315363407,0.09082402288913727,-0.032346829771995544
1782942166776592600,0.760592529296875,-0.003123574424535036,0.06950400769710541,-0.031011585146188736
1782942166786577700,0.77057763671875,0.01390068233013153,0.029584821313619614,-0.017713092267513275
1782942166796562700,0.780562744140625,0.03067435696721077,-0.011468390002846718,0.00032475218176841736
1782942166806547700,0.790547607421875,0.05352001637220383,-0.044015415012836456,0.020587412640452385
1782942166816532700,0.80053271484375,0.0678214356303215,-0.05535590276122093,0.04913518205285072
1782942166826517800,0.810517822265625,0.06607014685869217,-0.05120003968477249,0.06845375150442123
1782942166836502800,0.820502685546875,0.05285501107573509,-0.030817987397313118,0.08242715150117874
1782942166846483500,0.8304833984375,0.03264961019158363,0.010310007259249687,0.0723193883895874
1782942166856468700,0.84046875,0.013265259563922882,0.04591194540262222,0.04178118705749512
1782942166866453800,0.850453857421875,-0.002461771946400404,0.07052594423294067,0.00038634566590189934
1782942166876438500,0.8604384765625,-0.014018558897078037,0.0744173526763916,-0.04316192865371704
1782942166886423600,0.870423583984375,-0.01949242129921913,0.05944027006626129,-0.07166387885808945
1782942166896408600,0.88040869140625,-0.02234652079641819,0.03688446804881096,-0.0753859132528305
1782942166906393600,0.8903935546875,-0.022730015218257904,0.014790617860853672,-0.06124773249030113
1782942166916378600,0.900378662109375,-0.01720847748219967,0.0007289145141839981,-0.027654219418764114
1782942166926364700,0.91036474609375,0.00047144899144768715,0.016034100204706192,0.022947438061237335
1782942166936349700,0.920349609375,0.017735611647367477,0.03113424777984619,0.06536436825990677
1782942166946334700,0.930334716796875,0.02774936333298683,0.038505878299474716,0.08884066343307495
1782942166956319500,0.940319580078125,0.02942207083106041,0.03738759085536003,0.08794605731964111
1782942166966304500,0.950304443359375,0.0279698483645916,0.03440538048744202,0.06938143074512482
1782942166976289500,0.96028955078125,0.024959459900856018,0.03713248670101166,0.03709103539586067
1782942166986274600,0.970274658203125,0.018203550949692726,0.03870215266942978,0.0002619139850139618
1782942166996259600,0.980259521484375,0.012088162824511528,0.036594558507204056,-0.03662654757499695
1782942167006244600,0.99024462890625,0.0018722766544669867,0.034064821898937225,-0.06033880263566971
1782942167016229600,1.000229736328125,-0.00825575739145279,0.026289906352758408,-0.0730462521314621
1782942167026214700,1.010214599609375,-0.014170104637742043,0.018402952700853348,-0.07262706756591797
1782942167036199700,1.02019970703125,-0.01427716389298439,0.018851429224014282,-0.06550044566392899
1782942167046184400,1.030184326171875,-0.013347454369068146,0.011942924000322819,-0.05405019223690033
1782942167056169500,1.04016943359375,-0.014431594870984554,0.014580070041120052,-0.04374996945261955
1782942167066154500,1.050154541015625,-0.008371039293706417,0.014645316638052464,-0.027697499841451645
1782942167076139800,1.060139892578125,-0.013323230668902397,0.01510875765234232,-0.016364790499210358
1782942167086124500,1.07012451171875,-0.01844901777803898,0.019792191684246063,-0.0037539219483733177
1782942167096109600,1.080109619140625,-0.02672262117266655,0.029850315302610397,0.006057138089090586
1782942167106094600,1.090094482421875,-0.02516413852572441,0.03712686896324158,0.015231728553771973
1782942167116079600,1.10007958984375,-0.019121229648590088,0.043684929609298706,0.021106239408254623
1782942167126064600,1.110064697265625,-0.009782588109374046,0.040119752287864685,0.019205540418624878
1782942167136050400,1.120050537109375,0.002225391333922744,0.02952711284160614,0.009466925635933876
1782942167146035700,1.13003564453125,0.014476465061306953,0.011106027290225029,0.0025086188688874245
1782942167156020700,1.140020751953125,0.023191655054688454,-0.014418029226362705,-0.008409406989812851
1782942167166005500,1.150005615234375,0.02678745426237583,-0.038470104336738586,-0.011318378150463104
1782942167175990500,1.159990478515625,0.025310203433036804,-0.05254911631345749,-0.0068183038383722305
1782942167185975600,1.1699755859375,0.019905850291252136,-0.047234777361154556,0.0010950127616524696
1782942167195960600,1.179960693359375,0.012103606015443802,-0.021111110225319862,0.012040926143527031
1782942167205945600,1.189945556640625,0.00551654351875186,0.005301855504512787,0.021452538669109344
1782942167215930400,1.199930419921875,-0.0019415640272200108,0.017467115074396133,0.02369946613907814
1782942167225915600,1.20991552734375,0.000484309159219265,0.016018355265259743,0.021095160394906998
1782942167235900700,1.219900634765625,0.0037654973566532135,0.0077757444232702255,0.015252111479640007
1782942167245885700,1.2298857421875,0.010037507861852646,0.0016672508791089058,0.003087323624640703
1782942167255870500,1.239870361328125,0.013937240466475487,-0.005130319856107235,-0.007115354761481285
1782942167265855500,1.24985546875,0.017064858227968216,-0.0193870197981596,-0.017473720014095306
1782942167275840500,1.259840576171875,0.018207497894763947,-0.033055175095796585,-0.016030341386795044
1782942167285825500,1.269825439453125,0.01840563677251339,-0.043287307024002075,-0.008670962415635586
1782942167295810600,1.279810546875,0.01543037686496973,-0.04013197124004364,0.0017694798298180103
1782942167305795600,1.289795654296875,0.007055534049868584,-0.033048227429389954,0.01612604781985283
1782942167315780600,1.299780517578125,0.001612053718417883,-0.012469208799302578,0.02369387447834015
1782942167325765600,1.309765625,-0.006943084765225649,0.01098578330129385,0.027472898364067078
1782942167335750700,1.319750732421875,-0.013995934277772903,0.029807407408952713,0.029860956594347954
1782942167345736400,1.329736328125,-0.023749496787786484,0.039326611906290054,0.024346614256501198
1782942167355721500,1.339721435546875,-0.03587966412305832,0.04166827350854874,0.01964893378317356
1782942167365706800,1.349706787109375,-0.041208118200302124,0.04644012451171875,0.013332182541489601
1782942167375691800,1.35969189453125,-0.042719461023807526,0.04830700159072876,0.0026899240911006927
1782942167385676500,1.369676513671875,-0.03611455485224724,0.04577646404504776,-0.008922522887587547
1782942167395661600,1.37966162109375,-0.02991684526205063,0.03702830523252487,-0.020938308909535408
1782942167405646600,1.389646484375,-0.02624727413058281,0.02015851065516472,-0.03270655497908592
1782942167415631600,1.399631591796875,-0.028099458664655685,0.0030761482194066048,-0.04062322527170181
1782942167425616400,1.409616455078125,-0.03504445031285286,-0.004440624266862869,-0.042141761630773544
1782942167435601400,1.419601318359375,-0.04058465361595154,0.001400696113705635,-0.03760531172156334
1782942167445586700,1.429586669921875,-0.04233141988515854,0.02670019119977951,-0.02810102328658104
1782942167455571700,1.43957177734375,-0.040491733700037,0.0550316721200943,-0.017867878079414368
1782942167465556700,1.449556640625,-0.03863631188869476,0.0749443918466568,-0.004787229001522064
1782942167475541500,1.45954150390625,-0.030103500932455063,0.0666927769780159,-0.0014991164207458496
1782942167485526500,1.469526611328125,-0.021577924489974976,0.04333365708589554,-0.0074084047228097916
1782942167495511600,1.479511474609375,-0.014848683960735798,0.01642283983528614,-0.014559635892510414
1782942167505496600,1.48949658203125,-0.014115515165030956,-0.000722857192158699,-0.020166389644145966
1782942167515481600,1.499481689453125,-0.017217546701431274,-0.0040425388142466545,-0.01641826704144478
1782942167525466600,1.509466552734375,-0.0197728481143713,0.005411417223513126,-0.01074893120676279
1782942167535451600,1.51945166015625,-0.025477085262537003,0.01901870220899582,0.005132903344929218
1782942167545437700,1.529437744140625,-0.030862797051668167,0.0323033481836319,0.016337886452674866
1782942167555422500,1.53942236328125,-0.03472064808011055,0.03211511671543121,0.018412353470921516
1782942167565407500,1.549407470703125,-0.03754786029458046,0.022438788786530495,0.01724082976579666
1782942167575392500,1.559392578125,-0.03961868956685066,0.018971838057041168,0.007825594395399094
1782942167585377500,1.56937744140625,-0.040240801870822906,0.007795085199177265,-0.004459301941096783
1782942167595362600,1.579362548828125,-0.037262629717588425,-0.003901951014995575,-0.012908687815070152
1782942167605347600,1.58934765625,-0.02942095324397087,-0.01686222478747368,-0.010358177125453949
1782942167615332600,1.59933251953125,-0.016344323754310608,-0.016719773411750793,-0.0008083987049758434
1782942167625317600,1.609317626953125,-0.002994429785758257,-0.008014433085918427,0.0053658741526305676
1782942167635302700,1.619302734375,0.005610550753772259,-0.0014436924830079079,0.012706784531474113
1782942167645287400,1.629287353515625,0.015585420653223991,0.005457623861730099,0.013332627713680267
1782942167655272400,1.6392724609375,0.01731056533753872,0.004081006161868572,0.008819733746349812
1782942167665257500,1.649257568359375,0.02021794021129608,-0.010152258910238743,-0.002386048436164856
1782942167675242800,1.65924267578125,0.016793392598628998,-0.020449478179216385,-0.010351970791816711
1782942167685227500,1.6692275390625,0.01752975769340992,-0.029835524037480354,-0.018670622259378433
1782942167695212500,1.679212646484375,0.013279872015118599,-0.03592872992157936,-0.023559510707855225
1782942167705197600,1.689197509765625,0.016568075865507126,-0.04598109796643257,-0.00885326974093914
1782942167715182600,1.6991826171875,0.017277339473366737,0.0004925616085529327,0.0161600299179554
1782942167725167600,1.709167724609375,0.01537397876381874,0.0032055238261818886,0.030578386038541794
1782942167735152400,1.71915234375,0.012048712931573391,-0.0005987286567687988,0.027320101857185364
1782942167745138700,1.729138671875,0.01122845895588398,0.004531051963567734,0.02031945064663887
1782942167755123700,1.739123779296875,0.0006144838407635689,0.012439344078302383,0.019696969538927078
1782942167765108500,1.7491083984375,-0.018394628539681435,0.018661286681890488,0.006551605649292469
1782942167775093500,1.759093505859375,-0.025805730372667313,0.006741690449416637,-0.007611914072185755
1782942167785078500,1.76907861328125,-0.029922179877758026,-0.0005937209352850914,-0.032018184661865234
1782942167795063600,1.7790634765625,-0.02375321462750435,-0.01437619049102068,-0.05507791042327881
1782942167805048600,1.789048583984375,-0.002671365160495043,-0.026339642703533173,-0.06927202641963959
1782942167815033600,1.79903369140625,0.016746753826737404,-0.02923194132745266,-0.0640047937631607
1782942167825018600,1.8090185546875,0.03723232075572014,-0.03103143908083439,-0.03911542147397995
1782942167835003600,1.819003662109375,0.060788534581661224,-0.04102495312690735,0.003164511639624834
1782942167844989400,1.828989501953125,0.0796588882803917,-0.038420915603637695,0.05750471353530884
1782942167854974500,1.838974365234375,0.09596996754407883,-0.03343936428427696,0.09230849891901016
1782942167864959500,1.84895947265625,0.09468232840299606,-0.029782578349113464,0.11116340756416321
1782942167874944800,1.85894482421875,0.08889210224151611,-0.03440939635038376,0.11431752145290375
1782942167884929500,1.868929443359375,0.07176744192838669,-0.0364813357591629,0.10249894112348557
1782942167894914600,1.87891455078125,0.052632614970207214,-0.04659215733408928,0.08478419482707977
1782942167904899600,1.888899658203125,0.049742020666599274,-0.06537516415119171,0.06909312307834625
1782942167914884600,1.898884521484375,0.051207296550273895,-0.08210775256156921,0.0651581659913063
1782942167924869600,1.90886962890625,0.05870755761861801,-0.08715710788965225,0.06383457034826279
1782942167934854400,1.9188544921875,0.07049978524446487,-0.07473377883434296,0.06875501573085785
1782942167944839400,1.92883935546875,0.08377803862094879,-0.04346267879009247,0.07508987933397293
1782942167954825700,1.93882568359375,0.09127220511436462,-0.017325077205896378,0.07457920163869858
1782942167964810500,1.948810546875,0.0937390923500061,0.002197491005063057,0.07381513714790344
1782942167974795500,1.95879541015625,0.08723108470439911,0.01612994447350502,0.06424609571695328
1782942167984780500,1.968780517578125,0.07075011730194092,0.015845518559217453,0.06596969068050385
1782942167994765600,1.978765625,0.052228622138500214,-0.0017271358519792557,0.06232635676860809
1782942168004750600,1.98875048828125,0.032909516245126724,-0.029590457677841187,0.05784904956817627
1782942168014735400,1.9987353515625,0.016188330948352814,-0.06315478682518005,0.05337007716298103
1782942168024720600,2.008720703125,-0.0006537665612995625,-0.09664750099182129,0.04319200664758682
1782942168034705700,2.01870556640625,-0.015721097588539124,-0.11053071171045303,0.02257898636162281
1782942168044690700,2.028690673828125,-0.027017958462238312,-0.10357692837715149,0.0058372910134494305
1782942168054675500,2.038675537109375,-0.031371742486953735,-0.08475741744041443,-0.004044139292091131
1782942168064660500,2.048660400390625,-0.0248416718095541,-0.042367879301309586,0.0004107966087758541
1782942168074645500,2.0586455078125,-0.008055531419813633,-0.0023103123530745506,0.020500505343079567
1782942168084630500,2.068630615234375,0.01154240407049656,0.0316053107380867,0.048290591686964035
1782942168094615600,2.078615478515625,0.022734925150871277,0.04751008003950119,0.0699913278222084
1782942168104600600,2.0886005859375,0.02798002026975155,0.0421089231967926,0.08850988000631332
1782942168114585600,2.098585693359375,0.025010865181684494,0.03860529512166977,0.09769079089164734
1782942168124570600,2.108570556640625,0.008180219680070877,0.04527731239795685,0.09287393093109131
1782942168134555600,2.1185556640625,-0.007991001009941101,0.055549927055835724,0.09201011806726456
1782942168144541400,2.12854150390625,-0.026262683793902397,0.07532469928264618,0.07613555341959
1782942168154526500,2.1385263671875,-0.03007611259818077,0.07628636062145233,0.05835765227675438
1782942168164511700,2.14851171875,-0.0288127101957798,0.09723292291164398,0.047673314809799194
1782942168174496800,2.158496826171875,-0.017507335171103477,0.12192588299512863,0.05264817550778389
1782942168184481500,2.1684814453125,-0.009305065497756004,0.13813921809196472,0.06406781077384949
1782942168194466600,2.178466552734375,0.0025082097854465246,0.1831407994031906,0.06316611170768738
1782942168204451600,2.18845166015625,0.014685247093439102,0.21240520477294922,0.06035327911376953
1782942168214436600,2.1984365234375,-0.0057383072562515736,0.19716721773147583,0.044366415590047836
1782942168224421400,2.20842138671875,-0.018904974684119225,0.16767270863056183,0.0031119221821427345
1782942168234406400,2.218406494140625,-0.055217672139406204,0.11537610739469528,-0.018631478771567345
1782942168244391700,2.2283916015625,-0.0942353755235672,0.02269676700234413,-0.032712679356336594
1782942168254376700,2.238376708984375,-0.1125483587384224,-0.02513837069272995,-0.03454192355275154
1782942168264361700,2.24836181640625,-0.09659362584352493,-0.02339453436434269,-0.040457602590322495
1782942168274346500,2.258346435546875,-0.06846214830875397,-0.008052353747189045,-0.05566137284040451
1782942168284331500,2.26833154296875,-0.05877623334527016,0.05165465176105499,-0.05919725447893143
1782942168294316500,2.278316650390625,-0.059049949049949646,0.12368450313806534,-0.05615309625864029
1782942168304301600,2.288301513671875,-0.03897131606936455,0.13745063543319702,-0.03924734890460968
1782942168314286600,2.29828662109375,-0.046556245535612106,0.08728407323360443,-0.006465645506978035
1782942168324271600,2.308271728515625,-0.06264573335647583,0.05598127841949463,0.01667376235127449
1782942168334256600,2.318256591796875,-0.07453010976314545,0.009250601753592491,0.06057272106409073
1782942168344242700,2.32824267578125,-0.0704064667224884,-0.046985507011413574,0.10094091296195984
1782942168354227500,2.3382275390625,-0.04960506036877632,-0.08019712567329407,0.14899186789989471
1782942168364212500,2.34821240234375,-0.03880833834409714,-0.04974867030978203,0.1859956979751587
1782942168374197500,2.358197509765625,-0.027767930179834366,0.022220462560653687,0.20902584493160248
1782942168384182800,2.368182861328125,-0.015045474283397198,0.11016310006380081,0.2055211216211319
1782942168394167600,2.37816748046875,-0.0012966436333954334,0.18834759294986725,0.1765950620174408
1782942168404152600,2.388152587890625,0.01197708398103714,0.21249182522296906,0.14053373038768768
1782942168414137600,2.3981376953125,0.017313236370682716,0.20182958245277405,0.1244015172123909
1782942168424122600,2.40812255859375,0.005243789870291948,0.14955653250217438,0.12759438157081604
1782942168434107600,2.418107666015625,-0.007716677151620388,0.06976500898599625,0.14056386053562164
1782942168444092400,2.428092529296875,-0.014935706742107868,-0.006362784653902054,0.1605207920074463
1782942168454077400,2.438077392578125,-0.006923094857484102,-0.05874064564704895,0.18831802904605865
1782942168464062700,2.448062744140625,0.001471988158300519,-0.07476941496133804,0.2110675424337387
1782942168474047700,2.4580478515625,-0.007445083931088448,-0.0709281787276268,0.22079075872898102
1782942168484032500,2.468032470703125,-0.03206334635615349,-0.06749163568019867,0.21794010698795319
1782942168494017500,2.478017578125,-0.06829032301902771,-0.05797850340604782,0.19347457587718964
1782942168504002600,2.48800244140625,-0.11160849779844284,-0.052336327731609344,0.16396835446357727
1782942168513987600,2.497987548828125,-0.15007494390010834,-0.02983248606324196,0.1267017424106598
1782942168523972600,2.50797265625,-0.1842678040266037,-0.007088025566190481,0.09538111090660095
1782942168533957400,2.517957275390625,-0.1970515102148056,0.02442377619445324,0.053797584027051926
1782942168543943700,2.527943603515625,-0.19549143314361572,0.04928065836429596,0.025825336575508118
1782942168553928700,2.5379287109375,-0.18529660999774933,0.05729331076145172,0.003621912095695734
1782942168563913500,2.54791357421875,-0.1713208705186844,0.04308827221393585,0.0005520861595869064
1782942168573898500,2.5578984375,-0.1571216583251953,0.04242695868015289,0.024741951376199722
1782942168583883500,2.567883544921875,-0.14358827471733093,0.053958710283041,0.06639565527439117
1782942168593868500,2.57786865234375,-0.13237528502941132,0.05547277629375458,0.10372798144817352
1782942168603853600,2.587853515625,-0.11946907639503479,0.05140239745378494,0.1302671730518341
1782942168613838600,2.597838623046875,-0.10530981421470642,0.04680269956588745,0.14853256940841675
1782942168623823600,2.60782373046875,-0.09297432005405426,0.04323459416627884,0.1449117362499237
1782942168633808600,2.61780859375,-0.09151176363229752,0.022405710071325302,0.13069109618663788
1782942168643793700,2.627793701171875,-0.08978123962879181,0.00782783329486847,0.09952118992805481
1782942168653778400,2.6377783203125,-0.0847550705075264,0.00006884615868330002,0.060807690024375916
1782942168663763500,2.647763427734375,-0.06797102838754654,0.0004645921289920807,0.014319285750389099
1782942168673748500,2.65774853515625,-0.04258039966225624,0.00652302335947752,-0.01908024773001671
1782942168683733500,2.6677333984375,-0.015463296324014664,0.011905272491276264,-0.038007065653800964
1782942168693718800,2.67771875,0.011659124866127968,0.006348744034767151,-0.03539050370454788
1782942168703703600,2.68770361328125,0.029635727405548096,-0.00731673464179039,-0.02846575155854225
1782942168713688600,2.6976884765625,0.04858781397342682,-0.03070206195116043,-0.012418987229466438
1782942168723673600,2.707673583984375,0.06486212462186813,-0.0525495707988739,-0.0015378440730273724
1782942168733659400,2.717659423828125,0.09424959868192673,-0.06710509955883026,-0.007112985942512751
1782942168743644400,2.72764453125,0.12980997562408447,-0.07731486111879349,-0.014473430812358856
1782942168753629700,2.737629638671875,0.16904470324516296,-0.0785631388425827,-0.021522797644138336
1782942168763614700,2.74761474609375,0.20683389902114868,-0.06379271298646927,-0.022254634648561478
1782942168773599700,2.757599853515625,0.22800816595554352,-0.05084722489118576,-0.011367440223693848
1782942168783584500,2.76758447265625,0.2388744056224823,-0.03363654762506485,-0.003722837660461664
1782942168793569500,2.777569580078125,0.244847372174263,-0.019294116646051407,0.008490604348480701
1782942168803554600,2.787554443359375,0.2458074390888214,-0.005610794760286808,0.014003880321979523
1782942168813539600,2.79753955078125,0.24403320252895355,0.0039640674367547035,0.014999134466052055
1782942168823524400,2.8075244140625,0.23811431229114532,0.0007959697395563126,0.0008849133737385273
1782942168833509600,2.817509521484375,0.2383423000574112,-0.00973757728934288,-0.009922211989760399
1782942168843494000,2.827493896484375,0.25035715103149414,-0.030117951333522797,-0.01637771539390087
1782942168853479000,2.83747900390625,0.26612868905067444,-0.04547325521707535,-0.007714464329183102
1782942168863464000,2.8474638671875,0.281551331281662,-0.062248505651950836,0.017101669684052467
1782942168873449000,2.857448974609375,0.290046751499176,-0.07061932981014252,0.05066172406077385
1782942168883434000,2.86743408203125,0.2890840172767639,-0.0737093985080719,0.08242630958557129
1782942168893419000,2.8774189453125,0.2780793011188507,-0.06375610083341599,0.09654532372951508
1782942168903404000,2.887404052734375,0.2630345821380615,-0.04464339092373848,0.09324194490909576
1782942168913389000,2.89738916015625,0.24001289904117584,-0.022660700604319572,0.0752904936671257
1782942168923374800,2.907374755859375,0.2089282125234604,-0.0006398214027285576,0.044389836490154266
1782942168933359900,2.91735986328125,0.18820562958717346,0.007815849035978317,0.017819669097661972
1782942168943345000,2.927344970703125,0.16361160576343536,0.0243183933198452,0.012240348383784294
1782942168953330000,2.937329833984375,0.1498957723379135,0.03069104254245758,0.01473861001431942
1782942168963315000,2.94731494140625,0.12976227700710297,0.026443302631378174,0.02743283286690712
1782942168973300000,2.957300048828125,0.11228078603744507,0.008666864596307278,0.03813339024782181
1782942168983285000,2.967284912109375,0.10394376516342163,-0.009767536073923111,0.049854494631290436
1782942168993270000,2.97727001953125,0.09980199486017227,-0.03361164405941963,0.04862912371754646
1782942169003254800,2.9872548828125,0.09768318384885788,-0.051620740443468094,0.058515310287475586
1782942169013239800,2.99723974609375,0.09449833631515503,-0.06714928150177002,0.06986162066459656
1782942169023224800,3.007224853515625,0.09336276352405548,-0.07296109944581985,0.07815683633089066
1782942169033210000,3.017210205078125,0.08144775032997131,-0.06962770223617554,0.08823751658201218
1782942169043195100,3.027195068359375,0.06776443123817444,-0.05515022575855255,0.091920405626297
1782942169053180000,3.037179931640625,0.04430462047457695,-0.028456032276153564,0.07854349911212921
1782942169063165000,3.0471650390625,0.017632264643907547,0.0016592610627412796,0.05333214998245239
1782942169073150000,3.05714990234375,0.001575001748278737,0.0384146124124527,0.024695977568626404
1782942169083135000,3.067135009765625,-0.015451386570930481,0.05720987543463707,0.0005685361102223396
1782942169093119700,3.07711962890625,-0.022715948522090912,0.05512365326285362,-0.017682112753391266
1782942169103104800,3.087104736328125,-0.031708646565675735,0.02912188321352005,-0.023760778829455376
1782942169113091000,3.097091064453125,-0.04101667180657387,-0.004701991565525532,-0.017959540709853172
1782942169123075800,3.107075927734375,-0.04607880860567093,-0.03047260269522667,-0.0008572530932724476
1782942169133060900,3.117060791015625,-0.04429711773991585,-0.043428778648376465,0.017093097791075706
1782942169143046000,3.1270458984375,-0.0311320498585701,-0.03206799924373627,0.034237995743751526
1782942169153031000,3.137031005859375,-0.013840937986969948,-0.004354024305939674,0.0408981591463089
1782942169163016000,3.147015869140625,-0.001336864661425352,0.025546349585056305,0.03937962278723717
1782942169173001000,3.1570009765625,0.003054942237213254,0.03872140869498253,0.02477545663714409
1782942169182986000,3.166986083984375,0.003154544625431299,0.038513146340847015,0.008004200644791126
1782942169192971000,3.176970947265625,-0.006171061657369137,0.0314667709171772,-0.005253871437162161
1782942169202956000,3.1869560546875,-0.012257982976734638,0.013154076412320137,0.0002737855538725853
1782942169212941000,3.196941162109375,-0.011015363037586212,0.00965321809053421,0.023173581808805466
1782942169222925800,3.20692578125,-0.015271360985934734,-0.0037158504128456116,0.03717222437262535
1782942169232910800,3.216910888671875,-0.022730853408575058,-0.0359150655567646,0.026416897773742676
1782942169242896000,3.226895751953125,-0.027633732184767723,-0.045126140117645264,-0.004209453705698252
1782942169252881200,3.236881103515625,-0.02332235500216484,-0.038257211446762085,-0.03471981734037399
1782942169262866000,3.246865966796875,-0.01886795088648796,-0.02222498133778572,-0.0617024302482605
1782942169272851000,3.256850830078125,-0.009114365093410015,-0.006619628984481096,-0.07614204287528992
1782942169282836000,3.2668359375,-0.0016444646753370762,0.011752454563975334,-0.07241708040237427
1782942169292821800,3.27682177734375,0.006098104175180197,0.01246224157512188,-0.05841934680938721
1782942169302806800,3.286806884765625,0.016615726053714752,0.00004392210394144058,-0.04815152660012245
1782942169312792000,3.2967919921875,0.027030598372220993,-0.011280080303549767,-0.030955323949456215
1782942169322777000,3.306777099609375,0.036000657826662064,-0.029500097036361694,-0.02111308090388775
1782942169332762000,3.31676220703125,0.03943612053990364,-0.052278805524110794,-0.011483480222523212
1782942169342747000,3.326746826171875,0.028633538633584976,-0.06764204800128937,-0.0106331342831254
1782942169352732000,3.33673193359375,0.014486836269497871,-0.06283120810985565,-0.01963808760046959
1782942169362717000,3.346717041015625,0.00650427769869566,-0.052387088537216187,-0.029892057180404663
1782942169372702000,3.356701904296875,-0.0018407073803246021,-0.03558887913823128,-0.04918667674064636
1782942169382687000,3.36668701171875,-0.000330162700265646,-0.004980104044079781,-0.05973545461893082
1782942169392672000,3.376672119140625,0.001532380934804678,0.027773553505539894,-0.06389454007148743
1782942169402657000,3.386656982421875,0.009848633781075478,0.04615522176027298,-0.05556630343198776
1782942169412642000,3.39664208984375,0.017638158053159714,0.05005089193582535,-0.03685709089040756
1782942169422627000,3.406626953125,0.026745902374386787,0.04257060959935188,-0.015315843746066093
1782942169432611800,3.41661181640625,0.03556627035140991,0.021686656400561333,0.004182569682598114
1782942169442596900,3.426596923828125,0.042938701808452606,0.001653827726840973,0.020971138030290604
1782942169452582000,3.436581787109375,0.048243168741464615,-0.012027575634419918,0.0329710878431797
1782942169462567000,3.44656689453125,0.042156245559453964,-0.010862975381314754,0.038398075848817825
1782942169472552000,3.456552001953125,0.03654923662543297,-0.005689093843102455,0.03579336404800415
1782942169482538000,3.4665380859375,0.02916642278432846,0.0016958527266979218,0.0239939596503973
1782942169492523000,3.47652294921875,0.01785222440958023,0.014456870965659618,0.015937915071845055
1782942169502508000,3.486508056640625,0.009869400411844254,0.02916790544986725,0.00655639823526144
1782942169512492800,3.496492919921875,-0.003169105388224125,0.039790961891412735,-0.0017237449064850807
1782942169522477800,3.506477783203125,-0.011262452229857445,0.04058591276407242,-0.004525656811892986
1782942169532462800,3.516462890625,-0.017945673316717148,0.034254565834999084,0.0017865798436105251
1782942169542448000,3.5264482421875,-0.022697284817695618,0.027217695489525795,0.010546249337494373
1782942169552433000,3.536432861328125,-0.024739645421504974,0.020604990422725677,0.019873227924108505
1782942169562418000,3.54641796875,-0.020286574959754944,0.002229711040854454,0.02711516246199608
1782942169572403000,3.55640283203125,-0.015384780243039131,-0.01174597442150116,0.031388748437166214
1782942169582388000,3.566387939453125,-0.013959988951683044,-0.016772957518696785,0.029459554702043533
1782942169592373000,3.576373046875,-0.01340286061167717,-0.007551281712949276,0.033007021993398666
1782942169602357800,3.586357666015625,-0.014707010239362717,0.0026214616373181343,0.028826124966144562
1782942169612342800,3.5963427734375,-0.01172557007521391,0.018254032358527184,0.030964024364948273
1782942169622328000,3.606328125,-0.015389014966785908,0.026264818385243416,0.03537847846746445
1782942169632313000,3.61631298828125,-0.01858486235141754,0.028840787708759308,0.035465069115161896
1782942169642297900,3.6262978515625,-0.02313966676592827,0.01729145646095276,0.029546460136771202
1782942169652283000,3.636282958984375,-0.02673412300646305,0.000990140251815319,0.020166397094726562
1782942169662269000,3.64626904296875,-0.026873938739299774,-0.009271019138395786,0.004718732088804245
1782942169672254000,3.65625390625,-0.02590218372642994,-0.013785206712782383,-0.007177920080721378
1782942169682239000,3.666239013671875,-0.024378322064876556,-0.010923906229436398,-0.016746658831834793
1782942169692224000,3.67622412109375,-0.021334830671548843,-0.0013526417315006256,-0.012365179136395454
1782942169702209000,3.686208984375,-0.02168050780892372,0.004438667558133602,-0.0055323075503110886
1782942169712194000,3.696194091796875,-0.029059873893857002,0.004443570040166378,-0.007335925009101629
1782942169722178800,3.7061787109375,-0.03268417343497276,-0.0004907352849841118,-0.008939413353800774
1782942169732163800,3.716163818359375,-0.033536359667778015,-0.007036280352622271,-0.01459098793566227
1782942169742148900,3.72614892578125,-0.02893122471868992,-0.012201215140521526,-0.018001431599259377
1782942169752134000,3.7361337890625,-0.02071351557970047,-0.0073167914524674416,-0.012859195470809937
1782942169762119200,3.746119140625,-0.015405569225549698,0.002528383396565914,-0.008296135812997818
1782942169772104000,3.75610400390625,-0.01035193633288145,0.008747076615691185,-0.0071176993660628796
1782942169782089000,3.7660888671875,-0.009529552422463894,0.02164423279464245,-0.00912305898964405
1782942169792074000,3.776073974609375,-0.009328214451670647,0.030349334701895714,-0.013859559781849384
1782942169802059000,3.78605908203125,-0.01409873552620411,0.02634580247104168,-0.022119887173175812
1782942169812044000,3.7960439453125,-0.014510462991893291,0.01847400702536106,-0.03360416740179062
1782942169822028800,3.80602880859375,-0.01516400184482336,0.004045000299811363,-0.042313769459724426
1782942169832015000,3.81601513671875,-0.003977680578827858,-0.00044745951890945435,-0.04477498307824135
1782942169842003700,3.826003662109375,0.008527458645403385,-0.003743654116988182,-0.043313439935445786
1782942169851988700,3.83598876953125,0.012186958454549313,-0.010981830768287182,-0.037477754056453705
1782942169861973800,3.845973876953125,0.017243502661585808,-0.017151309177279472,-0.03291575610637665
1782942169871958800,3.855958740234375,0.01955004408955574,-0.024009723216295242,-0.025964563712477684
1782942169881944000,3.865944091796875,0.01563146896660328,-0.028661467134952545,-0.016330577433109283
1782942169891928800,3.8759287109375,0.011346932500600815,-0.030583443120121956,-0.006445760373026133
1782942169901913900,3.885913818359375,0.0034296205267310143,-0.015193301253020763,-0.0037069651298224926
1782942169911899000,3.89589892578125,-0.003312375396490097,-0.0016402872279286385,-0.011410132981836796
1782942169921884000,3.9058837890625,-0.0019640172831714153,0.009925288148224354,-0.022986359894275665
1782942169931868700,3.91586865234375,0.0035832608118653297,0.008451525121927261,-0.03726224601268768
1782942169941853700,3.925853759765625,0.01138126291334629,0.0013760393485426903,-0.050270188599824905
1782942169951838700,3.935838623046875,0.018894881010055542,-0.007465928327292204,-0.051712583750486374
1782942169961824000,3.945823974609375,0.024432390928268433,-0.011104338802397251,-0.03828546032309532
1782942169971809000,3.95580908203125,0.018963340669870377,-0.01544214878231287,-0.014678146690130234
1782942169981793800,3.965793701171875,0.014135031029582024,-0.008565068244934082,0.004603139124810696
1782942169991778800,3.97577880859375,0.009826036170125008,0.006425864994525909,0.018337858840823174
1782942170001763800,3.985763916015625,0.0019089910201728344,0.018901711329817772,0.01916583627462387
1782942170011749600,3.99574951171875,-0.00011664815247058868,0.023980678990483284,0.004657093435525894
1782942170021734700,4.005734619140625,-0.001127584371715784,0.03280586004257202,-0.013016176410019398
1782942170031716900,4.015716796875,0.0004346338100731373,0.029769431799650192,-0.02510613389313221
1782942170041702000,4.025701904296875,-0.0000854814425110817,0.030651472508907318,-0.029089422896504402
1782942170051686700,4.035686767578125,0.0016178833320736885,0.027565479278564453,-0.022217873483896255
1782942170061673000,4.0456728515625,0.006632083095610142,0.030047547072172165,-0.007960639894008636
1782942170071658000,4.055657958984375,0.017776113003492355,0.030792802572250366,0.005271920468658209
1782942170081642800,4.065642822265625,0.03472074121236801,0.02895575761795044,0.01571257784962654
1782942170091627800,4.075627685546875,0.04755636304616928,0.032735951244831085,0.030283406376838684
1782942170101612800,4.08561279296875,0.05725373327732086,0.036591146141290665,0.03920472785830498
1782942170111597800,4.095597900390625,0.06269349157810211,0.034309934824705124,0.046801142394542694
1782942170121582800,4.105582763671875,0.0569961853325367,0.02873886749148369,0.04883979260921478
1782942170131567600,4.115567626953125,0.04837367683649063,0.019101232290267944,0.040218669921159744
1782942170141553000,4.125552978515625,0.043337639421224594,0.008166027255356312,0.023732371628284454
1782942170151538000,4.135537841796875,0.03978576883673668,-0.0025948723778128624,0.02713250368833542
1782942170161523000,4.14552294921875,0.032048486173152924,0.017919190227985382,0.032694779336452484
1782942170171507700,4.1555078125,0.023526890203356743,-0.009356556460261345,0.024919359013438225
1782942170181492700,4.16549267578125,0.014030858874320984,-0.041365887969732285,0.008677272126078606
1782942170191477800,4.175477783203125,0.020831765606999397,-0.05293181166052818,-0.004674016498029232
1782942170201462800,4.185462890625,0.02019074372947216,-0.04279981553554535,-0.016328807920217514
1782942170211447800,4.19544775390625,0.021234717220067978,-0.022859185934066772,-0.017853744328022003
1782942170221432800,4.205432861328125,0.024814005941152573,-0.0026202257722616196,-0.017626844346523285
1782942170231419000,4.2154189453125,0.024161027744412422,0.010619466193020344,-0.008683965541422367
1782942170241404000,4.22540380859375,0.018275706097483635,0.02127717062830925,0.001100221648812294
1782942170251388700,4.235388671875,0.010855572298169136,0.026327695697546005,-0.0005101696588099003
1782942170261373700,4.245373779296875,-0.0035164416767656803,0.027763672173023224,-0.0013970020227134228
1782942170271358700,4.255358642578125,-0.014407442882657051,0.02724297344684601,-0.012059098109602928
1782942170281344000,4.265343994140625,-0.02035188488662243,0.015672337263822556,-0.031776346266269684
1782942170291329000,4.2753291015625,-0.02119635045528412,0.0035325800999999046,-0.04078995808959007
1782942170301313800,4.285313720703125,-0.01975531503558159,0.0008108299225568771,-0.04479695111513138
1782942170311298800,4.295298828125,-0.011448913253843784,-0.004743404686450958,-0.04133444279432297
1782942170321283800,4.305283935546875,-0.0020159962587058544,-0.01740034483373165,-0.032242946326732635
1782942170331268900,4.315268798828125,0.008375639095902443,-0.022298134863376617,-0.019091911613941193
1782942170341253600,4.325253662109375,0.016894027590751648,-0.02471308968961239,-0.006099147722125053
1782942170351238700,4.33523876953125,0.02266378328204155,-0.025916334241628647,-0.001409932505339384
1782942170361224000,4.345223876953125,0.02645878866314888,-0.03263336047530174,-0.0014243139885365963
1782942170371209000,4.355208984375,0.027674535289406776,-0.03919363021850586,-0.006946519948542118
1782942170381194000,4.365194091796875,0.02239774726331234,-0.03973238915205002,-0.013910419307649136
1782942170391178800,4.3751787109375,0.016818420961499214,-0.02814502641558647,-0.01850689947605133
1782942170401163800,4.385163818359375,0.005354044493287802,-0.015062249265611172,-0.01621604897081852
1782942170411149800,4.39514990234375,-0.005819311831146479,0.007378836162388325,-0.019275709986686707
1782942170421134600,4.405134521484375,-0.01653374172747135,0.03427569568157196,-0.018290074542164803
1782942170431120000,4.415119873046875,-0.02046799287199974,0.06310651451349258,-0.019524943083524704
1782942170441105000,4.42510498046875,-0.016270317137241364,0.0811731293797493,-0.02340276911854744
1782942170451091700,4.435091796875,-0.009504818357527256,0.07775317132472992,-0.02385997399687767
1782942170461076700,4.44507666015625,-0.0015827128663659096,0.06546162068843842,-0.02487197518348694
1782942170471061800,4.455061767578125,0.010186857543885708,0.04184944927692413,-0.023228934034705162
1782942170481047000,4.465047119140625,0.0223790742456913,0.012325380928814411,-0.012343529611825943
1782942170491031800,4.47503173828125,0.03887871652841568,-0.011241384781897068,0.000020643696188926697
1782942170501016800,4.485016845703125,0.04912576079368591,-0.03306785225868225,0.015733560547232628
1782942170511001900,4.495001953125,0.05445393919944763,-0.056398287415504456,0.028401624411344528
1782942170520987000,4.50498681640625,0.04895717650651932,-0.06880728900432587,0.03563743084669113
1782942170530972700,4.51497265625,0.030260996893048286,-0.06084113568067551,0.03306827321648598
1782942170540958000,4.5249580078125,0.01559390313923359,-0.03268992528319359,0.01570313237607479
1782942170550943000,4.53494287109375,0.0007531256414949894,0.0005928827449679375,-0.01102791540324688
1782942170560927700,4.544927734375,-0.0014210790395736694,0.020268317312002182,-0.03527333587408066
1782942170570912800,4.554912841796875,-0.00034114252775907516,0.028663448989391327,-0.05470883473753929
1782942170580897800,4.564897705078125,-0.003355042077600956,0.017497345805168152,-0.05674641579389572
1782942170590882800,4.5748828125,-0.0017068623565137386,-0.00022187642753124237,-0.04850563406944275
1782942170600867800,4.584867919921875,0.0034460879396647215,-0.021652866154909134,-0.026080220937728882
1782942170610852600,4.5948525390625,0.005039764102548361,-0.029341664165258408,0.0025073899887502193
1782942170620838000,4.604837890625,0.006627274677157402,-0.03465946391224861,0.02413225919008255
1782942170630823000,4.614822998046875,0.007474131882190704,-0.03104458749294281,0.038860492408275604
1782942170640808000,4.624807861328125,0.011799105443060398,-0.015791065990924835,0.040842413902282715
1782942170650793000,4.63479296875,0.014003735035657883,0.007072719745337963,0.035063114017248154
1782942170660777700,4.64477783203125,0.015959827229380608,0.03397517278790474,0.019549665972590446
1782942170670762800,4.6547626953125,0.013877720572054386,0.056884437799453735,0.0016371430829167366
1782942170680747800,4.664747802734375,0.0106827262789011,0.062413156032562256,-0.008397381752729416
1782942170690732800,4.67473291015625,0.0038560403045266867,0.06399395316839218,-0.016784781590104103
1782942170700717800,4.6847177734375,-0.0005363114178180695,0.05073753744363785,-0.010576687753200531
1782942170710703900,4.694703857421875,-0.0017664851620793343,0.024913214147090912,0.0008160225115716457
1782942170720689000,4.70468896484375,0.005896228365600109,0.012703153304755688,0.012400239706039429
1782942170730673700,4.714673583984375,0.009359659627079964,-0.004025091417133808,0.01975489780306816
1782942170740658700,4.72465869140625,0.014715808443725109,-0.016842886805534363,0.023265477269887924
1782942170750643700,4.734643798828125,0.01716727949678898,-0.009118259884417057,0.026415778324007988
1782942170760629000,4.74462890625,0.01747647300362587,-0.006461756303906441,0.02624666690826416
1782942170770614000,4.754614013671875,0.014554173685610294,0.0013083908706903458,0.024443846195936203
1782942170780598800,4.764598876953125,0.006037117913365364,0.00445890985429287,0.016459956765174866
1782942170790583800,4.774583740234375,-0.0044988724403083324,0.00021926313638687134,0.0016423901543021202
1782942170800568800,4.78456884765625,-0.012890757992863655,-0.0014502722769975662,-0.018804827705025673
1782942170810553900,4.794553955078125,-0.0182343777269125,-0.004504759795963764,-0.037217799574136734
1782942170820539000,4.804538818359375,-0.021776914596557617,-0.011625253595411777,-0.045487180352211
1782942170830523600,4.814523681640625,-0.022894397377967834,-0.009051305241882801,-0.044912856072187424
1782942170840509000,4.824509033203125,-0.024590566754341125,-0.008841448463499546,-0.032050587236881256
1782942170850489900,4.83448974609375,-0.016721714287996292,-0.00022519193589687347,-0.019957777112722397
1782942170860475100,4.84447509765625,-0.015346989035606384,0.004432677291333675,-0.005517053417861462
1782942170870460200,4.854460205078125,-0.012176230549812317,0.00909161102026701,0.005719888489693403
1782942170880446000,4.864446044921875,-0.02289465442299843,0.00247392151504755,0.004139568656682968
1782942170890431000,4.874430908203125,-0.02284032665193081,0.0011380799114704132,-0.009524312801659107
1782942170900416000,4.884416015625,-0.023847267031669617,-0.002411646768450737,-0.0213727168738842
1782942170910400800,4.89440087890625,-0.02201499044895172,-0.0010853931307792664,-0.03224708512425423
1782942170920385800,4.9043857421875,-0.01785912737250328,0.0035383878275752068,-0.03288224712014198
1782942170930371000,4.91437109375,-0.010807899758219719,0.007270249538123608,-0.0317097082734108
1782942170940356000,4.924356201171875,-0.006848845165222883,0.010215970687568188,-0.023086125031113625
1782942170950340900,4.9343408203125,-0.004973174072802067,0.009749730117619038,-0.016273964196443558
1782942170960326000,4.944325927734375,-0.0035814056172966957,0.008424806408584118,-0.016738418489694595
1782942170970311000,4.954310791015625,-0.005426693242043257,-0.000638248398900032,-0.025868546217679977
1782942170980296000,4.9642958984375,-0.0020253038965165615,-0.017679816111922264,-0.032401278614997864
1782942170990281000,4.974281005859375,-0.004465045407414436,-0.03065231442451477,-0.040152598172426224
1782942171000265700,4.984265625,-0.009622789919376373,-0.04592021554708481,-0.04722701758146286
1782942171010251000,4.9942509765625,-0.01407209224998951,-0.04589257016777992,-0.050062645226716995
1782942171020236000,5.004236083984375,-0.01665695570409298,-0.0397566482424736,-0.04808657988905907
1782942171030221000,5.014220947265625,-0.010369296185672283,-0.02035575732588768,-0.04874879866838455
1782942171040206800,5.024206787109375,0.004670373629778624,0.004934685304760933,-0.041302602738142014
1782942171050192000,5.03419189453125,0.02175670862197876,0.027268271893262863,-0.033235102891922
1782942171060177000,5.044177001953125,0.03553244099020958,0.0413726381957531,-0.016382619738578796
1782942171070162200,5.054162109375,0.03527677804231644,0.052246320992708206,0.002846734132617712
1782942171080147000,5.06414697265625,0.02945297583937645,0.05024416372179985,0.013952914625406265
1782942171090132000,5.074132080078125,0.01793641224503517,0.0402667298913002,0.015215247869491577
1782942171100117000,5.084116943359375,0.01464208122342825,0.0249269250780344,0.0020373938605189323
1782942171110102000,5.09410205078125,0.014627422206103802,0.000006795860826969147,-0.012103384360671043
1782942171120086800,5.104086669921875,0.022265635430812836,-0.01867101900279522,-0.02827596291899681
1782942171130071800,5.11407177734375,0.02045626938343048,-0.030543547123670578,-0.03558114171028137
1782942171140056800,5.124056884765625,0.016738496720790863,-0.034613125026226044,-0.027365554124116898
1782942171150042000,5.1340419921875,0.012076379731297493,-0.019966378808021545,-0.014393970370292664
1782942171160027100,5.144027099609375,0.0029148398898541927,-0.0016635395586490631,0.0035397568717598915
1782942171170012000,5.154011962890625,0.0018144305795431137,0.013161852024495602,0.004425784572958946
1782942171179997000,5.163996826171875,0.0007022945210337639,0.023329533636569977,-0.0012422213330864906
1782942171189982000,5.17398193359375,0.005095748696476221,0.02380533516407013,-0.011539890430867672
1782942171199967000,5.183967041015625,0.008254790678620338,0.019263315945863724,-0.022411447018384933
1782942171209952000,5.193951904296875,0.0029574688524007797,0.006433749571442604,-0.027674898505210876
1782942171219938000,5.20393798828125,0.0002008308656513691,-0.005589890293776989,-0.022183727473020554
1782942171229923000,5.213923095703125,-0.003952109254896641,-0.0252534206956625,-0.01175325270742178
1782942171239908000,5.223908203125,-0.0035246722400188446,-0.03753219172358513,-0.0009778374806046486
1782942171249892900,5.233892822265625,-0.0018040169961750507,-0.045180682092905045,0.00759555259719491
1782942171259878000,5.2438779296875,-0.003974759951233864,-0.03564843162894249,0.009501044638454914
1782942171269863000,5.25386279296875,-0.003896213136613369,-0.02517043426632881,0.009003044106066227
1782942171279848000,5.263847900390625,-0.005266942083835602,-0.005706987343728542,0.007060534320771694
1782942171289832700,5.273832763671875,-0.008798801340162754,0.008927400223910809,-0.00009433133527636528
1782942171299818000,5.28381787109375,-0.010357016697525978,0.021986741572618484,-0.007559437770396471
1782942171309803000,5.293802978515625,-0.01167129073292017,0.025886889547109604,-0.007131331600248814
1782942171319788000,5.3037880859375,-0.012561052106320858,0.018684104084968567,-0.007246646098792553
1782942171329773000,5.31377294921875,-0.01692676544189453,0.008376418612897396,-0.003745325841009617
1782942171339757800,5.3237578125,-0.014839114621281624,-0.0013590333983302116,0.002138395793735981
1782942171349742800,5.333742919921875,-0.011212149634957314,-0.011380162090063095,0.006634139455854893
1782942171359727900,5.343727783203125,-0.006232836749404669,-0.019561393186450005,0.008330306969583035
1782942171369714000,5.3537138671875,0.00405887933447957,-0.022431600838899612,0.010942582041025162
1782942171379699000,5.363698974609375,0.009164958260953426,-0.01670393906533718,0.014319203794002533
1782942171389684000,5.37368408203125,0.00840330496430397,-0.02209535427391529,0.01653508096933365
1782942171399669000,5.3836689453125,0.002470048377290368,-0.01973472721874714,0.01570230908691883
1782942171409654000,5.393654052734375,0.004926062189042568,-0.020126676186919212,0.017163090407848358
1782942171419638800,5.403638671875,0.0020570384804159403,-0.02529054507613182,0.014235209673643112
1782942171429623800,5.413623779296875,0.0002327440306544304,-0.027090944349765778,0.006236557848751545
1782942171439609000,5.423609130859375,0.001397344283759594,-0.02366691641509533,-0.004440321121364832
1782942171449594000,5.433593994140625,0.0035483818501234055,-0.018047355115413666,-0.011979799717664719
1782942171459579000,5.443578857421875,0.003674881998449564,-0.010425387881696224,-0.011189106851816177
1782942171469564000,5.45356396484375,-0.00276647275313735,-0.0067410157062113285,-0.013592630624771118
1782942171479549000,5.463548828125,0.002035473007708788,-0.009463299065828323,-0.010608559474349022
1782942171489534000,5.473533935546875,0.004772954620420933,-0.022708050906658173,-0.009502826258540154
1782942171499519000,5.48351904296875,0.0056227692402899265,-0.03510799631476402,-0.0052031525410711765
1782942171509503700,5.493503662109375,0.01426096260547638,-0.043642785400152206,0.0046958401799201965
1782942171519489000,5.503489013671875,0.018644260242581367,-0.04458954185247421,0.0091068334877491
1782942171529474000,5.51347412109375,0.0213787704706192,-0.036460794508457184,0.018376711755990982
1782942171539459000,5.523458984375,0.024586815387010574,-0.017986712977290154,0.02132030576467514
1782942171549444900,5.53344482421875,0.023288575932383537,-0.001087789423763752,0.020491495728492737
1782942171559430000,5.543429931640625,0.02576851099729538,0.014614741317927837,0.014016552828252316
1782942171569415000,5.553414794921875,0.026604188606142998,0.021432433277368546,0.006353188306093216
1782942171579400000,5.56339990234375,0.01754038594663143,0.01695699244737625,-0.00502490159124136
1782942171589385000,5.573385009765625,0.011213762685656548,0.004032433964312077,-0.004601379856467247
1782942171599370000,5.583369873046875,0.004753199405968189,-0.014049365185201168,-0.00946511048823595
1782942171609355000,5.59335498046875,-0.0003930334933102131,-0.024203281849622726,-0.010580681264400482
1782942171619340000,5.603340087890625,0.00687526585534215,-0.03692387044429779,0.002120465971529484
1782942171629324800,5.61332470703125,0.012834331020712852,-0.040208082646131516,0.011378561146557331
1782942171639309800,5.623309814453125,0.01895107887685299,-0.0319829098880291,0.02964038774371147
1782942171649294800,5.633294921875,0.02002350427210331,-0.01083298772573471,0.036489129066467285
1782942171659280100,5.643280029296875,0.021268265321850777,0.018259115517139435,0.03888224437832832
1782942171669265200,5.65326513671875,0.022854482755064964,0.047244347631931305,0.028032168745994568
1782942171679250000,5.66325,0.02090877667069435,0.06555597484111786,0.017974473536014557
1782942171689235000,5.67323486328125,0.013876406475901604,0.06045038253068924,0.004840846173465252
1782942171699220000,5.683219970703125,0.0073655107989907265,0.031592898070812225,0.0011989735066890717
1782942171709205800,5.693205810546875,0.012476897798478603,0.002657417207956314,0.04327966272830963
1782942171719190800,5.703190673828125,0.012971713207662106,-0.015822790563106537,0.06511198729276657
1782942171729176000,5.713176025390625,0.012961333617568016,-0.05584254115819931,0.06686753779649734
1782942171739161000,5.7231611328125,0.025360746309161186,-0.05662151426076889,0.04655401036143303
1782942171749146000,5.73314599609375,0.03879455104470253,-0.046847980469465256,0.026292800903320312
1782942171759131000,5.743130859375,0.046772848814725876,-0.028071897104382515,0.007419511675834656
1782942171769116000,5.753115966796875,0.04444977641105652,-0.00977595429867506,-0.0036582406610250473
1782942171779101000,5.763100830078125,0.035766273736953735,0.008586009033024311,-0.0021546203643083572
1782942171789086000,5.7730859375,0.02573331445455551,0.018436644226312637,0.0038401097990572453
1782942171799070700,5.78307080078125,0.01555204950273037,0.021998625248670578,0.01561687421053648
1782942171809056000,5.793055908203125,0.011469446122646332,0.021436188369989395,0.012806491926312447
1782942171819041000,5.803041015625,0.011234555393457413,0.01713358610868454,0.013335661962628365
1782942171829026000,5.813026123046875,0.011827366426587105,0.012871356680989265,0.008735589683055878
1782942171839011000,5.823010986328125,0.01698457822203636,0.006586296483874321,0.008929201401770115
1782942171848995800,5.832995849609375,0.02092951163649559,0.0037294430658221245,0.011897765100002289
1782942171858980900,5.84298095703125,0.020883172750473022,0.009453642182052135,0.022720584645867348
1782942171868967000,5.852966796875,0.022570058703422546,0.019573599100112915,0.03498294949531555
1782942171878951700,5.86295166015625,0.02115645259618759,0.029920246452093124,0.04709154739975929
1782942171888936700,5.872936767578125,0.0197787806391716,0.03686473146080971,0.050368908792734146
1782942171898921700,5.882921630859375,0.020691178739070892,0.03978249058127403,0.04767885059118271
1782942171908907000,5.892906982421875,0.01926424168050289,0.038256578147411346,0.04498261213302612
1782942171918892000,5.90289208984375,0.01648177206516266,0.031817853450775146,0.03712522238492966
1782942171928876800,5.912876708984375,0.01107903104275465,0.026296507567167282,0.029415160417556763
1782942171938861800,5.92286181640625,0.005864029284566641,0.0165402851998806,0.02711791731417179
1782942171948846800,5.932846923828125,0.0005067815072834492,0.012431938201189041,0.024106968194246292
1782942171958831900,5.942831787109375,-0.005991331767290831,0.011565612629055977,0.022792698815464973
1782942171968816600,5.952816650390625,-0.009967435151338577,0.007476275786757469,0.022003207355737686
1782942171978801700,5.9628017578125,-0.015292159281671047,0.007948720827698708,0.01901354268193245
1782942171988787000,5.972786865234375,-0.018761975690722466,0.007617100141942501,0.012863760814070702
1782942171998772000,5.98277197265625,-0.018687408417463303,0.0027581630274653435,0.005371756386011839
1782942172008757000,5.992757080078125,-0.014827927574515343,-0.0027531711384654045,0.0019614938646554947
1782942172018741800,6.00274169921875,-0.011343181133270264,-0.003653053194284439,0.0032272939570248127
1782942172028727800,6.012727783203125,-0.010835587047040462,-0.008950401097536087,0.015483031049370766
1782942172038712800,6.022712890625,-0.010696036741137505,-0.014061273075640202,0.020213337615132332
1782942172048697600,6.032697509765625,-0.011143981479108334,-0.02105686441063881,0.03534355387091637
1782942172058683000,6.042682861328125,-0.007796120829880238,-0.02888256311416626,0.04272051155567169
1782942172068668000,6.05266796875,-0.01057995855808258,-0.03516807034611702,0.041400205343961716
1782942172078653000,6.06265283203125,-0.013733141124248505,-0.021014701575040817,0.028869766741991043
1782942172088638000,6.072637939453125,-0.01563248224556446,0.004048888571560383,0.01440052967518568
1782942172098622700,6.082622802734375,-0.00979083962738514,0.0333002507686615,0.0021004537120461464
1782942172108607700,6.092607666015625,-0.006559328176081181,0.05776841938495636,-0.008256200700998306
1782942172118592800,6.1025927734375,-0.004614422097802162,0.055740952491760254,-0.00966234877705574
1782942172128577800,6.112577880859375,-0.004641915205866098,0.03377946838736534,-0.010723710060119629
1782942172138562800,6.122562744140625,-0.0025774328969419003,0.008391286246478558,-0.004687922541052103
1782942172148547800,6.1325478515625,0.0013363759499043226,-0.010736768133938313,0.0012981793843209743
1782942172158532900,6.142532958984375,0.007412910461425781,-0.015551762655377388,0.012563350610435009
1782942172168518000,6.152517822265625,0.01764475181698799,-0.011450277641415596,0.021582961082458496
1782942172178503000,6.1625029296875,0.024108242243528366,0.000898534432053566,0.027816355228424072
1782942172188488700,6.17248876953125,0.025903820991516113,0.012783018872141838,0.03176663815975189
1782942172198474000,6.182473876953125,0.02191866934299469,0.01592901162803173,0.029637441039085388
1782942172208459000,6.192458984375,0.014675362035632133,0.01126240473240614,0.021955979987978935
1782942172218443800,6.20244384765625,0.011324306949973106,0.0021306918933987617,0.01394812110811472
1782942172228428800,6.2124287109375,0.0129062095656991,-0.015682043507695198,0.007573254872113466
1782942172238413800,6.222413818359375,0.014298243448138237,-0.039615608751773834,0.0025523975491523743
1782942172248398800,6.23239892578125,0.011980792507529259,-0.045561783015728,-0.0023070266470313072
1782942172258384000,6.2423837890625,0.00804757047444582,-0.042594484984874725,-0.004529167897999287
1782942172268368600,6.25236865234375,0.0024546191561967134,-0.018519027158617973,-0.0012178965844213963
1782942172278354000,6.26235400390625,-0.0021688947454094887,0.00807050708681345,0.0023046666756272316
1782942172288339000,6.2723388671875,-0.00015419721603393555,0.030627422034740448,0.009548986330628395
1782942172298324000,6.282323974609375,0.0030418625101447105,0.05398707091808319,0.020806435495615005
1782942172308308700,6.292308837890625,0.008227083832025528,0.06379978358745575,0.030565224587917328
1782942172318293800,6.302293701171875,0.015207761898636818,0.05701325088739395,0.041732657700777054
1782942172328278800,6.31227880859375,0.020814191550016403,0.03837069869041443,0.04731401428580284
1782942172338263800,6.322263916015625,0.022797446697950363,0.01912802830338478,0.04897822439670563
1782942172348248800,6.332248779296875,0.023680267855525017,-0.008734729140996933,0.04534415528178215
1782942172358235000,6.34223486328125,0.02286054752767086,-0.03092818334698677,0.043632008135318756
1782942172368220000,6.352219970703125,0.018654894083738327,-0.04670459404587746,0.033154722303152084
1782942172378205000,6.362204833984375,0.007865896448493004,-0.04294207692146301,0.02254682220518589
1782942172388189700,6.372189697265625,0.0013433222193270922,-0.02344457432627678,0.012142689898610115
1782942172398174700,6.3821748046875,-0.00606479262933135,0.003834185190498829,0.005405691917985678
1782942172408159700,6.39215966796875,-0.009605241939425468,0.02404651790857315,-0.0014362079091370106
1782942172418145000,6.40214501953125,-0.00451194541528821,0.029844749718904495,-0.0019278270192444324
1782942172428129800,6.4121298828125,-0.00015816325321793556,0.02284494787454605,-0.003291796427220106
1782942172438114800,6.42211474609375,0.008427867665886879,0.0037165265530347824,0.0021477104164659977
1782942172448099800,6.432099853515625,0.015077728778123856,-0.016805920749902725,0.007623537443578243
1782942172458084900,6.4420849609375,0.023009952157735825,-0.029875382781028748,0.015124063938856125
1782942172468070000,6.45206982421875,0.031304411590099335,-0.031237836927175522,0.020850829780101776
1782942172478054700,6.4620546875,0.03589330613613129,-0.03130228444933891,0.01966865360736847
1782942172488039700,6.472039794921875,0.03772344812750816,-0.030953969806432724,0.023005779832601547
1782942172498025000,6.48202490234375,0.04115386679768562,-0.023548252880573273,0.01472441479563713
1782942172508010000,6.492010009765625,0.039427269250154495,-0.006116361357271671,0.0015922817401587963
1782942172517995800,6.501995849609375,0.03751352056860924,0.004693941213190556,-0.016817884519696236
1782942172527980800,6.511980712890625,0.035483699291944504,0.01318249199539423,-0.03187835216522217
1782942172537965800,6.5219658203125,0.03138456493616104,0.011150500737130642,-0.04301515966653824
1782942172547950800,6.531950927734375,0.029200514778494835,-0.0051431190222501755,-0.041324127465486526
1782942172557935600,6.541935546875,0.03134302794933319,-0.02983647957444191,-0.03967722877860069
1782942172567921000,6.5519208984375,0.036055199801921844,-0.0505593866109848,-0.03440335392951965
1782942172577906000,6.561906005859375,0.04451340064406395,-0.0678398385643959,-0.02457495778799057
1782942172587891000,6.571890869140625,0.0557442307472229,-0.07451007515192032,-0.015598448924720287
1782942172597875700,6.581875732421875,0.06134885177016258,-0.07232867926359177,-0.012338473461568356
1782942172607860700,6.59186083984375,0.06433077901601791,-0.06819113343954086,-0.009616445749998093
1782942172617845800,6.601845703125,0.06586981564760208,-0.06521745026111603,-0.020629150792956352
1782942172627830800,6.611830810546875,0.06750711798667908,-0.06092323735356331,-0.028464630246162415
1782942172637815800,6.62181591796875,0.05358145013451576,-0.04522949457168579,-0.04263770580291748
1782942172647800800,6.63180078125,0.035482898354530334,-0.04010608047246933,-0.04919781908392906
1782942172657785900,6.641785888671875,0.023997481912374496,-0.039171576499938965,-0.05465676635503769
1782942172667771000,6.65177099609375,0.011596167460083961,-0.03673770651221275,-0.05207667127251625
1782942172677756700,6.661756591796875,0.007338571362197399,-0.029089108109474182,-0.03842664137482643
1782942172687741700,6.67174169921875,0.00588560476899147,-0.00974319688975811,-0.020794617012143135
1782942172697726700,6.681726806640625,0.008779129013419151,0.02154548093676567,-0.002704562619328499
1782942172707712000,6.6917119140625,0.009374058805406094,0.05851282924413681,0.00839590560644865
1782942172717697000,6.701697021484375,0.01139779482036829,0.06775825470685959,0.009116556495428085
1782942172727681800,6.711681884765625,0.009177755564451218,0.053591202944517136,0.003276663366705179
1782942172737666800,6.721666748046875,0.00013792188838124275,0.009075666777789593,-0.0136429313570261
1782942172747651800,6.73165185546875,-0.006313585676252842,-0.0476619154214859,-0.03097185306251049
1782942172757636900,6.741636962890625,-0.014153665862977505,-0.09357666969299316,-0.050617724657058716
1782942172767621600,6.75162158203125,-0.019385147839784622,-0.1143803671002388,-0.05858372524380684
1782942172777606700,6.761606689453125,-0.021105818450450897,-0.1035628691315651,-0.05859997496008873
1782942172787592000,6.771592041015625,-0.01969754509627819,-0.06716712564229965,-0.05188673734664917
1782942172797577000,6.781576904296875,-0.01800217665731907,-0.018094921484589577,-0.03653920814394951
1782942172807562000,6.79156201171875,-0.015745393931865692,0.023058105260133743,-0.019200578331947327
1782942172817546800,6.801546630859375,-0.014752565883100033,0.04590456560254097,-0.007131400052458048
1782942172827531800,6.81153173828125,-0.012645455077290535,0.05074453726410866,-0.0015811165794730186
1782942172837517800,6.821517822265625,-0.0045683542266488075,0.03561592102050781,-0.0013614064082503319
1782942172847502600,6.831502685546875,-0.00046153413131833076,0.0032817134633660316,-0.009698204696178436
1782942172857487600,6.841487548828125,-0.003074361477047205,-0.03266856446862221,-0.017822178080677986
1782942172867472600,6.85147265625,-0.008872559294104576,-0.06965222954750061,-0.021306749433279037
1782942172877457700,6.861457763671875,-0.014141622930765152,-0.08934737741947174,-0.020260924473404884
1782942172887442700,6.871442626953125,-0.022695504128932953,-0.09090708941221237,-0.01964189112186432
1782942172897427700,6.881427734375,-0.023787133395671844,-0.06982550770044327,-0.020037902519106865
1782942172907412700,6.891412841796875,-0.01855531707406044,-0.03444009646773338,-0.026977060362696648
1782942172917397800,6.901397705078125,-0.015028227120637894,0.00013918429613113403,-0.0262079406529665
1782942172927382800,6.9113828125,-0.012833246961236,0.0268845371901989,-0.024847663938999176
1782942172937367600,6.921367431640625,-0.02311624400317669,0.04430533945560455,-0.025275100022554398
1782942172947352600,6.9313525390625,-0.030797353014349937,0.046547699719667435,-0.028989465907216072
1782942172957337600,6.941337646484375,-0.03702675551176071,0.03556589037179947,-0.03974570706486702
1782942172967322600,6.951322509765625,-0.047377392649650574,0.03654569387435913,-0.05455934256315231
1782942172977308000,6.961307861328125,-0.04122202843427658,0.05469327047467232,-0.06415924429893494
1782942172987292700,6.971292724609375,-0.027743760496377945,0.06892083585262299,-0.0659804493188858
1782942172997278700,6.98127880859375,-0.014562711119651794,0.07033071666955948,-0.05464630201458931
1782942173007263700,6.991263671875,-0.00809282436966896,0.06557462364435196,-0.03572867438197136
1782942173017248500,7.00124853515625,-0.0029449337162077427,0.056461285799741745,-0.008963105268776417
1782942173027233500,7.011233642578125,-5.345791578292847e-7,0.05180245637893677,0.0025827577337622643
1782942173037218800,7.02121875,0.005123121198266745,0.07047228515148163,0.00890883058309555
1782942173047203800,7.031203857421875,0.020066622644662857,0.06999068707227707,0.00028833048418164253
1782942173057188900,7.04118896484375,0.027537323534488678,0.05144975706934929,0.0005690278485417366
1782942173067173600,7.051173583984375,0.025268344208598137,0.00926788616925478,0.011877983808517456
1782942173077158700,7.06115869140625,0.007325296755880117,-0.015573814511299133,0.028123533353209496
1782942173087143700,7.071143798828125,-0.004888780880719423,-0.015598870813846588,0.03648633882403374
1782942173097128700,7.081128662109375,0.002013333374634385,-0.01175699383020401,0.027287514880299568
1782942173107113500,7.091113525390625,0.016097472980618477,0.014635887928307056,0.001644594594836235
1782942173117098800,7.1010986328125,0.023439008742570877,0.052087388932704926,-0.0214825626462698
1782942173127083800,7.111083740234375,0.0037049639504402876,0.05554841086268425,-0.040791064500808716
1782942173137068800,7.12106884765625,-0.020500507205724716,0.057751115411520004,-0.04621752351522446
1782942173147053800,7.1310537109375,-0.039291463792324066,0.0661722868680954,-0.037483446300029755
1782942173157039600,7.14103955078125,-0.03931969404220581,0.07798287272453308,-0.0125980693846941
1782942173167024600,7.151024658203125,-0.04628707468509674,0.07454478740692139,0.032159559428691864
1782942173177009700,7.161009765625,-0.06741739064455032,0.040470704436302185,0.06334970146417618
1782942173186994700,7.17099462890625,-0.09493448585271835,0.03628600016236305,0.07246921956539154
1782942173196979700,7.180979736328125,-0.0983305498957634,0.08972179144620895,0.04815056547522545
1782942173206964700,7.19096484375,-0.0782596692442894,0.12885889410972595,0.004592525772750378
1782942173216949800,7.20094970703125,-0.05088876932859421,0.1405690759420395,-0.048281606286764145
1782942173226934800,7.210934814453125,-0.03331107646226883,0.10503281652927399,-0.07452282309532166
1782942173236919600,7.22091943359375,-0.03223249316215515,0.04697723314166069,-0.07514573633670807
1782942173246904600,7.230904541015625,-0.03479578718543053,-0.017492329701781273,-0.05031808093190193
1782942173256889600,7.2408896484375,-0.03414757549762726,-0.05250810459256172,-0.024663317948579788
1782942173266875000,7.250875,-0.02933575212955475,-0.06713338196277618,-0.02052810788154602
1782942173276859600,7.260859619140625,-0.01702236197888851,-0.05873830243945122,-0.022175006568431854
1782942173286844700,7.2708447265625,-0.007216879166662693,-0.030990134924650192,-0.04199238121509552
1782942173296829700,7.28082958984375,0.00013823946937918663,-0.021757755428552628,-0.057669345289468765
1782942173306814700,7.290814697265625,0.001368034165352583,-0.01372208259999752,-0.059649236500263214
1782942173316800500,7.300800537109375,-0.000780071597546339,-0.013311956077814102,-0.048998456448316574
1782942173326785800,7.310785888671875,0.000028757844120264053,-0.018453089520335197,-0.03123372793197632
1782942173336770800,7.320770751953125,-0.00640064524486661,-0.012913981452584267,-0.015564486384391785
1782942173346755800,7.330755859375,-0.0046602594666182995,0.0005146078765392303,-0.024586817249655724
1782942173356740600,7.34074072265625,0.0011366431135684252,-0.0023962268605828285,-0.040667783468961716
1782942173366725600,7.3507255859375,0.009395911358296871,0.001724827103316784,-0.06143318861722946
1782942173376710700,7.360710693359375,0.007967125624418259,-0.00633230060338974,-0.06721197813749313
1782942173386695700,7.37069580078125,0.00210151937790215,-0.027057206258177757,-0.07330575585365295
1782942173396680700,7.3806806640625,-0.005134821403771639,-0.03825633227825165,-0.06339932978153229
1782942173406665700,7.390665771484375,-0.007830200716853142,-0.03217172622680664,-0.06296145170927048
1782942173416650800,7.400650634765625,0.0072563402354717255,-0.030522964894771576,-0.06335319578647614
1782942173426635800,7.4106357421875,0.019336679950356483,-0.016366716474294662,-0.06992772966623306
1782942173436620800,7.420620849609375,0.016746489331126213,-0.009934384375810623,-0.07230247557163239
1782942173446605600,7.43060546875,0.00823025219142437,0.0002820063382387161,-0.0688854455947876
1782942173456590600,7.440590576171875,0.0002074791118502617,0.00015071220695972443,-0.06126241758465767
1782942173466575600,7.45057568359375,-0.010410308837890625,-0.0014137579128146172,-0.05317870154976845
1782942173476561700,7.460561767578125,-0.0198978204280138,-0.015645690262317657,-0.052741676568984985
1782942173486546700,7.470546630859375,-0.024856876581907272,-0.026679489761590958,-0.05188175290822983
1782942173496531700,7.48053173828125,-0.02628086879849434,-0.028230780735611916,-0.05562189593911171
1782942173506516700,7.490516845703125,-0.022987084463238716,-0.01505683921277523,-0.06286334991455078
1782942173516501800,7.500501708984375,-0.016740906983613968,-0.001285366714000702,-0.07592669129371643
1782942173526486500,7.510486572265625,-0.01570415124297142,0.01476159319281578,-0.08420385420322418
1782942173536471600,7.520471435546875,-0.017837878316640854,0.01993238553404808,-0.09270785748958588
1782942173546456800,7.530456787109375,-0.019357994198799133,0.020419154316186905,-0.0916934683918953
1782942173556441900,7.54044189453125,-0.012305144220590591,0.018807142972946167,-0.08482757210731506
1782942173566427000,7.550427001953125,-0.010480339638888836,0.022068796679377556,-0.0722600594162941
1782942173576411600,7.56041162109375,-0.0050384365022182465,0.02132471092045307,-0.061114996671676636
1782942173586396700,7.570396728515625,-0.0012945495545864105,0.021192267537117004,-0.054411761462688446
1782942173596381700,7.580381591796875,0.004387304652482271,0.00525298248976469,-0.059951938688755035
1782942173606366700,7.59036669921875,0.008311707526445389,-0.015550960786640644,-0.06879740208387375
1782942173616351500,7.6003515625,0.014062803238630295,-0.024176139384508133,-0.07786600291728973
1782942173626336800,7.610336669921875,0.017572341486811638,-0.015249175019562244,-0.08328128606081009
1782942173636322800,7.62032275390625,0.015519045293331146,-0.009089283645153046,-0.08060400933027267
1782942173646307600,7.6303076171875,0.01447214838117361,0.022893579676747322,-0.0634671002626419
1782942173656292600,7.640292724609375,0.01356054749339819,0.06126626580953598,-0.03724401816725731
1782942173666277600,7.650277587890625,0.005947647616267204,0.0700274258852005,-0.023921694606542587
1782942173676262700,7.6602626953125,-0.006871211342513561,0.08916463702917099,-0.04745365306735039
1782942173686247700,7.67024755859375,-0.0069948043674230576,0.07418593019247055,-0.08897851407527924
1782942173696232700,7.680232666015625,0.0014239801093935966,0.008431682363152504,-0.14796540141105652
1782942173706217700,7.6902177734375,0.016366977244615555,0.032571639865636826,-0.14622342586517334
1782942173716202800,7.70020263671875,0.0020610082428902388,-0.11859231442213058,-0.09821754693984985
1782942173726187800,7.710187744140625,-0.007631002459675074,-0.30220621824264526,-0.13946400582790375
1782942173736172800,7.7201728515625,0.007049672771245241,-0.2231295108795166,-0.1826881766319275
1782942173746157600,7.730157470703125,0.015944868326187134,-0.1082160547375679,-0.2089679092168808
1782942173756142600,7.740142578125,0.005792366806417704,-0.042753420770168304,-0.21034236252307892
1782942173766127600,7.750127685546875,-0.00628800131380558,0.0027844496071338654,-0.15563903748989105
1782942173776113000,7.76011279296875,0.0008740373887121677,0.012896206229925156,-0.08234511315822601
