time,seconds_elapsed,z,y,x
1782942182732369400,0.083369384765625,-0.01983030140399933,0.0036134524270892143,0.09268826991319656
1782942182742354400,0.0933544921875,-0.02109210565686226,0.02786233276128769,0.12577377259731293
1782942182752339700,0.103339599609375,-0.020874319598078728,0.040068596601486206,0.15359652042388916
1782942182762324500,0.113324462890625,-0.012855540961027145,0.05436977371573448,0.17731915414333344
1782942182772309500,0.1233095703125,0.000813944498077035,0.07530448585748672,0.20970392227172852
1782942182782294500,0.13329443359375,-0.00032615475356578827,0.09732749313116074,0.25319576263427734
1782942182792279600,0.143279541015625,-0.01924818754196167,0.13974225521087646,0.2938999533653259
1782942182802264600,0.1532646484375,-0.031204983592033386,0.16878987848758698,0.32193052768707275
1782942182812249300,0.163249267578125,-0.02335292287170887,0.17722564935684204,0.3389360308647156
1782942182822234400,0.173234375,-0.004817855078727007,0.17383091151714325,0.3421270251274109
1782942182832219600,0.1832197265625,0.020356228575110435,0.15512403845787048,0.32775554060935974
1782942182842204700,0.19320458984375,0.05101560428738594,0.11551590263843536,0.2793238162994385
1782942182852189400,0.203189453125,0.08722767978906631,0.05902450904250145,0.22224614024162292
1782942182862174000,0.213174072265625,0.12144476920366287,0.02243533730506897,0.16802391409873962
1782942182872159000,0.223158935546875,0.1400006115436554,0.016277041286230087,0.13362519443035126
1782942182882144300,0.233144287109375,0.1349605768918991,0.009036439470946789,0.10352028906345367
1782942182892129300,0.24312939453125,0.11758802086114883,0.01065866183489561,0.09002570062875748
1782942182902114000,0.253114013671875,0.10212037712335587,0.02524293214082718,0.08532388508319855
1782942182912099000,0.26309912109375,0.08862850069999695,0.023313645273447037,0.088504858314991
1782942182922084000,0.273083984375,0.07666025310754776,-0.002862032502889633,0.09546849131584167
1782942182932069000,0.283069091796875,0.06722521036863327,-0.033087633550167084,0.10821665078401566
1782942182942054100,0.29305419921875,0.062874935567379,-0.06611908227205276,0.11367958784103394
1782942182952039000,0.303038818359375,0.056686822324991226,-0.08759361505508423,0.11396607011556625
1782942182962024200,0.313024169921875,0.050071265548467636,-0.08594565093517303,0.10718140006065369
1782942182972010200,0.32301025390625,0.046527910977602005,-0.07591318339109421,0.09753724187612534
1782942182981995000,0.3329951171875,0.048696789890527725,-0.06317981332540512,0.09013205766677856
1782942182991980000,0.34297998046875,0.04396248236298561,-0.05890018865466118,0.08525946736335754
1782942183001965000,0.352965087890625,0.035541832447052,-0.06356631964445114,0.08997033536434174
1782942183011950000,0.3629501953125,0.020493894815444946,-0.06186918914318085,0.09111203998327255
1782942183021935000,0.37293505859375,0.0025018451269716024,-0.06208810210227966,0.08883903175592422
1782942183031920000,0.382920166015625,-0.01783056929707527,-0.06438779085874557,0.0695635974407196
1782942183041905200,0.3929052734375,-0.03871587663888931,-0.07998113334178925,0.05552740395069122
1782942183051890200,0.40289013671875,-0.056045886129140854,-0.10499722510576248,0.046852435916662216
1782942183061875200,0.412875244140625,-0.05952104553580284,-0.1208970919251442,0.03190997242927551
1782942183071860000,0.42285986328125,-0.06924425065517426,-0.13968013226985931,0.012590404599905014
1782942183081845000,0.432844970703125,-0.08153260499238968,-0.1313428431749344,-0.0006276620551943779
1782942183091830000,0.442830078125,-0.09322172403335571,-0.10408374667167664,-0.02419658750295639
1782942183101815300,0.452815185546875,-0.09252770245075226,-0.06965387612581253,-0.040002983063459396
1782942183111800300,0.46280029296875,-0.07722015678882599,-0.02245078794658184,-0.04613129422068596
1782942183121785000,0.47278515625,-0.056094102561473846,0.03297518938779831,-0.04481382668018341
1782942183131770000,0.48277001953125,-0.041345465928316116,0.06513014435768127,-0.034422069787979126
1782942183141755100,0.492755126953125,-0.038679640740156174,0.06716586649417877,-0.019964834675192833
1782942183151740200,0.502740234375,-0.03908688202500343,0.06333104521036148,-0.0012601632624864578
1782942183161725000,0.512724853515625,-0.03342952951788902,0.03443894162774086,0.024688348174095154
1782942183171710000,0.5227099609375,-0.030357543379068375,0.019612623378634453,0.048821162432432175
1782942183181695200,0.5326953125,-0.02491031214594841,0.01923578418791294,0.07498778402805328
1782942183191680300,0.54268017578125,-0.02759586274623871,0.043209902942180634,0.09826375544071198
1782942183201665300,0.552665283203125,-0.03309795260429382,0.09967318177223206,0.12074136734008789
1782942183211651000,0.562651123046875,-0.031049706041812897,0.15339617431163788,0.13030849397182465
1782942183221636000,0.572635986328125,-0.024481283500790596,0.1994086652994156,0.12288494408130646
1782942183231621000,0.58262109375,-0.01661379635334015,0.2116459310054779,0.11035192012786865
1782942183241606000,0.59260595703125,0.0038944073021411896,0.1892460584640503,0.10291637480258942
1782942183251591200,0.602591064453125,0.020741567015647888,0.14199362695217133,0.10129444301128387
1782942183261576200,0.612576171875,0.039366114884614944,0.11242135614156723,0.09864619374275208
1782942183271561200,0.622561279296875,0.05126459524035454,0.07649540156126022,0.10645677149295807
1782942183281546200,0.632546142578125,0.05018148571252823,0.028466083109378815,0.1304987221956253
1782942183291531000,0.642531005859375,0.046890344470739365,-0.023071754723787308,0.15796570479869843
1782942183301516000,0.65251611328125,0.046170491725206375,-0.07459220290184021,0.1842452436685562
1782942183311501000,0.6625009765625,0.046980660408735275,-0.10109512507915497,0.20358777046203613
1782942183321486000,0.672486083984375,0.03886866942048073,-0.08926376700401306,0.2040777951478958
1782942183331471000,0.68247119140625,0.0327490009367466,-0.05768125504255295,0.19368620216846466
1782942183341456100,0.6924560546875,0.025278301909565926,-0.021563999354839325,0.18377551436424255
1782942183351441200,0.702441162109375,0.013960646465420723,0.023822998628020287,0.17571033537387848
1782942183361426200,0.71242626953125,0.009659108705818653,0.06686846911907196,0.17948776483535767
1782942183371411200,0.7224111328125,0.0057661449536681175,0.11820773035287857,0.19637751579284668
1782942183381396000,0.73239599609375,-0.0018811221234500408,0.15986648201942444,0.214101642370224
1782942183391381000,0.742381103515625,-0.00949782133102417,0.19193491339683533,0.2321968525648117
1782942183401366300,0.7523662109375,-0.012963125482201576,0.21086226403713226,0.2445874810218811
1782942183411351300,0.762351318359375,-0.008934538811445236,0.20703819394111633,0.24708731472492218
1782942183421336000,0.772336181640625,0.000881074694916606,0.18763414025306702,0.2460489422082901
1782942183431321000,0.782321044921875,0.00866867695003748,0.14708419144153595,0.2469656765460968
1782942183441306000,0.79230615234375,0.018780965358018875,0.10542862117290497,0.25976163148880005
1782942183451292200,0.802292236328125,0.020464377477765083,0.07683613151311874,0.2735036611557007
1782942183461277000,0.81227685546875,0.0185820534825325,0.056309014558792114,0.27777591347694397
1782942183471262200,0.82226220703125,0.015939660370349884,0.04605206474661827,0.26770901679992676
1782942183481247200,0.832247314453125,0.015782535076141357,0.04863027110695839,0.24441489577293396
1782942183491232300,0.842232177734375,0.013255421072244644,0.04792732000350952,0.21093358099460602
1782942183501217000,0.852217041015625,0.015777435153722763,0.0454614982008934,0.18679654598236084
1782942183511202000,0.8622021484375,0.01720142737030983,0.05008554086089134,0.17100746929645538
1782942183521187000,0.87218701171875,0.018203306943178177,0.054744478315114975,0.1717986911535263
1782942183531172000,0.882172119140625,0.023302210494875908,0.05327271297574043,0.1862209141254425
1782942183541157000,0.8921572265625,0.020593244582414627,0.06394240260124207,0.19245989620685577
1782942183551142100,0.90214208984375,0.02499201148748398,0.07719586789608002,0.18366952240467072
1782942183561127200,0.912127197265625,0.028771836310625076,0.07531620562076569,0.1619517058134079
1782942183571112200,0.9221123046875,0.0350365936756134,0.06103598326444626,0.13275037705898285
1782942183581097200,0.93209716796875,0.04216880723834038,0.04113764315843582,0.10816621035337448
1782942183591082000,0.94208203125,0.04487065225839615,0.017863089218735695,0.09061267971992493
1782942183601067000,0.95206689453125,0.048309326171875,0.01398419588804245,0.08452121913433075
1782942183611052000,0.962052001953125,0.05613015219569206,0.0077537186443805695,0.08743809908628464
1782942183621037000,0.972037109375,0.06375238299369812,0.002553895115852356,0.09107890725135803
1782942183631022300,0.982022216796875,0.07596571743488312,0.00951296091079712,0.09345865994691849
1782942183641007000,0.992007080078125,0.08284120261669159,0.028028853237628937,0.08907803148031235
1782942183650992000,1.0019921875,0.07549722492694855,0.04272270202636719,0.07351846992969513
1782942183660977200,1.01197705078125,0.07208064943552017,0.040963150560855865,0.055278480052948
1782942183670962200,1.021962158203125,0.06650584191083908,0.027368061244487762,0.029651358723640442
1782942183680947000,1.031947021484375,0.06665843725204468,-0.0017701173201203346,0.00534548657014966
1782942183690933200,1.041933349609375,0.0649833232164383,-0.04128090664744377,-0.00818504486232996
1782942183700918300,1.051918212890625,0.06085355952382088,-0.08731923997402191,-0.012858093716204166
1782942183710903000,1.061903076171875,0.05841520428657532,-0.11424104869365692,-0.014914941042661667
1782942183720888000,1.07188818359375,0.059303369373083115,-0.1056843101978302,-0.013745279982686043
1782942183730873000,1.081873046875,0.05703858658671379,-0.07542391121387482,-0.0157027505338192
1782942183740858000,1.091858154296875,0.047259192913770676,-0.049607228487730026,-0.02449704334139824
1782942183750843100,1.101843017578125,0.03715946152806282,-0.041178446263074875,-0.03179113194346428
1782942183760828000,1.111827880859375,0.03136655315756798,-0.03434983640909195,-0.03449530526995659
1782942183770813200,1.121813232421875,0.029773954302072525,-0.04568907618522644,-0.03397523611783981
1782942183780798200,1.131798095703125,0.025255369022488594,-0.0674247294664383,-0.02957063727080822
1782942183790783200,1.141783203125,0.01524557638913393,-0.07894887030124664,-0.026104377582669258
1782942183800768300,1.151768310546875,0.0026235245168209076,-0.07236793637275696,-0.025046570226550102
1782942183810753000,1.1617529296875,-0.00632039550691843,-0.04905552417039871,-0.023903831839561462
1782942183820738000,1.171738037109375,-0.01808331161737442,-0.03123125061392784,-0.03309972956776619
1782942183830723000,1.18172314453125,-0.02880389615893364,-0.026829611510038376,-0.043659742921590805
1782942183840708000,1.1917080078125,-0.033942729234695435,-0.013665072619915009,-0.059545230120420456
1782942183850693000,1.201693115234375,-0.03469105064868927,0.001517346128821373,-0.06491005420684814
1782942183860678000,1.211677978515625,-0.03333097696304321,0.015029425732791424,-0.058876391500234604
1782942183870663000,1.221662841796875,-0.034885745495557785,0.02667207270860672,-0.04468320310115814
1782942183880648000,1.23164794921875,-0.03682532534003258,0.041437968611717224,-0.028891457244753838
1782942183890633200,1.24163330078125,-0.038572631776332855,0.04656396806240082,-0.014957396313548088
1782942183900618000,1.251617919921875,-0.03738672658801079,0.04255750775337219,-0.009988736361265182
1782942183910603000,1.26160302734375,-0.03745359182357788,0.03753750026226044,-0.008742894977331161
1782942183920588000,1.271588134765625,-0.03847464546561241,0.0188991017639637,-0.015498002991080284
1782942183930573800,1.28157373046875,-0.030132293701171875,0.007541784085333347,-0.0199233777821064
1782942183940558800,1.291558837890625,-0.02564113959670067,-0.00926276296377182,-0.02497725747525692
1782942183950544000,1.3015439453125,-0.018389897421002388,-0.028763920068740845,-0.020437225699424744
1782942183960529200,1.311529052734375,-0.016321420669555664,-0.028229156509041786,-0.015195326879620552
1782942183970514200,1.32151416015625,-0.02052331529557705,-0.022616621106863022,-0.009510901756584644
1782942183980499000,1.3314990234375,-0.02137446030974388,-0.006717017386108637,-0.004572869278490543
1782942183990484000,1.34148388671875,-0.02277236059308052,0.010689881630241871,-0.011874056421220303
1782942184000469000,1.351468994140625,-0.024884779006242752,0.042276572436094284,-0.019146617501974106
1782942184010454000,1.3614541015625,-0.017946157604455948,0.06168939173221588,-0.024257835000753403
1782942184020438800,1.371438720703125,-0.00871617253869772,0.06037432700395584,-0.03098631277680397
1782942184030423800,1.381423828125,-0.002949906513094902,0.04533214867115021,-0.029124220833182335
1782942184040409000,1.3914091796875,0.0018080968875437975,0.03120647743344307,-0.02482801117002964
1782942184050394000,1.40139404296875,0.006136005744338036,0.025950517505407333,-0.008182858116924763
1782942184060379100,1.411379150390625,0.011179232969880104,0.0268314927816391,0.008063488639891148
1782942184070364000,1.421364013671875,0.005473649129271507,0.029234163463115692,0.021089494228363037
1782942184080349000,1.431348876953125,-0.005167543888092041,0.044486355036497116,0.037311337888240814
1782942184090334000,1.441333984375,-0.003839144017547369,0.04062919318675995,0.0457206629216671
1782942184100319000,1.451319091796875,0.0018805274739861488,0.06121356412768364,0.05234687402844429
1782942184110304000,1.461303955078125,0.00904012843966484,0.08775337040424347,0.05544049292802811
1782942184120289000,1.4712890625,0.007271789945662022,0.09734581410884857,0.044008076190948486
1782942184130274000,1.481274169921875,0.003735941369086504,0.09795229136943817,0.02269923873245716
1782942184140259000,1.491259033203125,-0.0010857116430997849,0.09433145821094513,0.003954046405851841
1782942184150244000,1.501244140625,-0.008515852503478527,0.0766131728887558,-0.01378911454230547
1782942184160230000,1.51122998046875,-0.01928114891052246,0.05383356288075447,-0.030382737517356873
1782942184170215000,1.52121484375,-0.02879909798502922,0.0435497984290123,-0.043824195861816406
1782942184180200200,1.5312001953125,-0.03414832055568695,0.03704556077718735,-0.05385099723935127
1782942184190185000,1.54118505859375,-0.03491424769163132,0.027831263840198517,-0.06726580858230591
1782942184200170000,1.551169921875,-0.03282579779624939,0.01918264850974083,-0.07566994428634644
1782942184210155000,1.561155029296875,-0.024748973548412323,0.019296256825327873,-0.07910674810409546
1782942184220140000,1.57114013671875,-0.01473868265748024,0.019793471321463585,-0.0833025574684143
1782942184230125000,1.581125,0.0012932594399899244,0.008840713649988174,-0.0823914110660553
1782942184240109800,1.59110986328125,0.023072324693202972,-0.016501925885677338,-0.07652366161346436
1782942184250094800,1.6010947265625,0.05207362025976181,-0.0427665039896965,-0.06337524205446243
1782942184260080000,1.611080078125,0.07779629528522491,-0.07206127047538757,-0.04531927406787872
1782942184270065200,1.621065185546875,0.09776151925325394,-0.08704745769500732,-0.025093795731663704
1782942184280050000,1.6310498046875,0.11170556396245956,-0.087473563849926,-0.012771880254149437
1782942184290035000,1.641034912109375,0.12218590080738068,-0.08118458837270737,0.0010458678007125854
1782942184300020000,1.65102001953125,0.11788249760866165,-0.0725674033164978,0.011316881515085697
1782942184310005000,1.6610048828125,0.10734786093235016,-0.05028872564435005,0.013130877166986465
1782942184319990000,1.670989990234375,0.09721266478300095,-0.03335048630833626,0.005462571047246456
1782942184329974800,1.680974853515625,0.08432689309120178,-0.017032135277986526,-0.0027890587225556374
1782942184339960000,1.6909599609375,0.07312590628862381,-0.006103853695094585,-0.015627093613147736
1782942184349945000,1.700945068359375,0.0599081851541996,0.0017043063417077065,-0.02155953459441662
1782942184359930000,1.71093017578125,0.046344172209501266,-0.0006193015724420547,-0.027363626286387444
1782942184369915100,1.7209150390625,0.027861248701810837,-0.006861228495836258,-0.023455936461687088
1782942184379900000,1.73089990234375,0.012885494157671928,-0.003932284191250801,-0.011398476548492908
1782942184389886000,1.740885986328125,0.0005212500691413879,0.004041886888444424,0.0016514710150659084
1782942184399871000,1.75087109375,-0.008092744275927544,0.013716085813939571,0.014961684122681618
1782942184409856000,1.76085595703125,-0.013869673013687134,0.02088344842195511,0.012520363554358482
1782942184419841000,1.770841064453125,-0.01674455590546131,0.02198519930243492,0.009304064325988293
1782942184429826000,1.780825927734375,-0.009116212837398052,0.02085665985941887,0.0010979422368109226
1782942184439811000,1.79081103515625,0.00041018053889274597,0.01598706841468811,-0.0009668059647083282
1782942184449795800,1.8007958984375,0.005191633012145758,0.005213383585214615,-0.005713433027267456
1782942184459780900,1.81078076171875,0.004252070095390081,-0.0022559836506843567,-0.0054220836609601974
1782942184469766000,1.820765869140625,0.00096488231793046,-0.015008267015218735,-0.0008821617811918259
1782942184479751000,1.8307509765625,-0.0007555196061730385,-0.024768218398094177,0.002919234335422516
1782942184489736200,1.840736083984375,-0.0030902926810085773,-0.03145730867981911,0.010217813774943352
1782942184499721000,1.850720947265625,-0.006553733255714178,-0.047554515302181244,0.013548096641898155
1782942184509706000,1.8607060546875,-0.0013288846239447594,-0.05279303714632988,0.01690308377146721
1782942184519691000,1.87069091796875,0.00980339478701353,-0.03864366188645363,0.021144701167941093
1782942184529676000,1.880676025390625,0.02431388758122921,-0.02970217913389206,0.019793882966041565
1782942184539661000,1.8906611328125,0.028077732771635056,-0.022036802023649216,0.009610488079488277
1782942184549645800,1.900645751953125,0.022083021700382233,-0.016005374491214752,-0.011727996170520782
1782942184559631000,1.910631103515625,0.018476035445928574,-0.011891322210431099,-0.036603786051273346
1782942184569616100,1.9206162109375,0.01365622878074646,-0.01892918162047863,-0.04986345395445824
1782942184579601200,1.93060107421875,0.00987187772989273,-0.0266419630497694,-0.04927382990717888
1782942184589586000,1.9405859375,0.011949662119150162,-0.034407876431941986,-0.0333871990442276
1782942184599572000,1.950572021484375,0.020262187346816063,-0.043188583105802536,-0.0018670917488634586
1782942184609557000,1.960556884765625,0.025066260248422623,-0.040374740958213806,0.023002441972494125
1782942184619541800,1.970541748046875,0.029780853539705276,-0.03690597414970398,0.04564756900072098
1782942184629527000,1.980527099609375,0.038037173449993134,-0.03467491269111633,0.056158605962991714
1782942184639512000,1.990511962890625,0.04089128226041794,-0.03104981780052185,0.06711617857217789
1782942184649497000,2.0004970703125,0.04085109382867813,-0.02027144283056259,0.08050341159105301
1782942184659482000,2.010482177734375,0.04299920052289963,-0.03806561976671219,0.10153572261333466
1782942184669467000,2.020466796875,0.03973202034831047,-0.01365418080240488,0.12643642723560333
1782942184679452000,2.030451904296875,0.027847129851579666,-0.013994532637298107,0.1290535181760788
1782942184689437000,2.04043701171875,0.019660599529743195,-0.03892571106553078,0.10606175661087036
1782942184699422000,2.050421875,0.02186463214457035,-0.05374806374311447,0.0708925873041153
1782942184709407000,2.060406982421875,0.025058496743440628,-0.04465619847178459,0.03390837833285332
1782942184719392000,2.07039208984375,0.03667760267853737,-0.026269469410181046,0.008203812874853611
1782942184729377000,2.080376953125,0.039296332746744156,-0.016343893483281136,-0.002770237158983946
1782942184739362000,2.090362060546875,0.045373402535915375,-0.00827531423419714,-0.0013947146944701672
1782942184749347000,2.10034716796875,0.044186949729919434,0.007222551852464676,-0.0017043659463524818
1782942184759331800,2.110331787109375,0.03891575708985329,0.008113378658890724,-0.003795480355620384
1782942184769316900,2.12031689453125,0.03484407067298889,-0.004299905151128769,-0.006161512807011604
1782942184779302000,2.130302001953125,0.026630884036421776,-0.0200655534863472,-0.009724821895360947
1782942184789287200,2.140287109375,0.016548113897442818,-0.028216347098350525,-0.007621631026268005
1782942184799272000,2.15027197265625,0.008239051327109337,-0.020764822140336037,0.0035817548632621765
1782942184809257000,2.160257080078125,0.00863586738705635,-0.012720691040158272,0.013688581064343452
1782942184819243000,2.170242919921875,0.01832764223217964,-0.007293967995792627,0.022837605327367783
1782942184829228000,2.18022802734375,0.0401083342730999,-0.018124988302588463,0.026404891163110733
1782942184839212800,2.190212890625,0.06027032807469368,-0.039553314447402954,0.02782142534852028
1782942184849198000,2.200197998046875,0.07746420055627823,-0.07489671558141708,0.024065854027867317
1782942184859183400,2.210183349609375,0.08533863723278046,-0.1151069849729538,0.028400948271155357
1782942184869168600,2.220168701171875,0.08795838803052902,-0.15784430503845215,0.04088178649544716
1782942184879153400,2.2301533203125,0.09023193269968033,-0.20059974491596222,0.06217961758375168
1782942184889138400,2.240138427734375,0.084323950111866,-0.19455964863300323,0.08533261716365814
1782942184899123500,2.25012353515625,0.0717458426952362,-0.1575169414281845,0.10691514611244202
1782942184909108500,2.2601083984375,0.0435032993555069,-0.09719381481409073,0.10753132402896881
1782942184919093200,2.27009326171875,0.0109410947188735,-0.025373954325914383,0.08891689032316208
1782942184929078300,2.280078369140625,-0.024602022022008896,0.030718691647052765,0.0506308488547802
1782942184939063300,2.290063232421875,-0.055531442165374756,0.07116678357124329,-0.010194152593612671
1782942184949048600,2.300048583984375,-0.07654399424791336,0.09128940850496292,-0.06857214123010635
1782942184959033600,2.31003369140625,-0.07336284965276718,0.0846962258219719,-0.11253692954778671
1782942184969018400,2.320018310546875,-0.054907165467739105,0.05415703356266022,-0.13313202559947968
1782942184979003400,2.33000341796875,-0.02136065810918808,0.010335518978536129,-0.1257241666316986
1782942184988988400,2.339988525390625,0.010118160396814346,-0.040173619985580444,-0.09421563148498535
1782942184998973400,2.349973388671875,0.03410205617547035,-0.07814284414052963,-0.04414420947432518
1782942185008959200,2.359959228515625,0.04978492110967636,-0.1095423623919487,0.0007266979664564133
1782942185018944500,2.369944580078125,0.05932622775435448,-0.11706472188234329,0.03805915638804436
1782942185028929500,2.379929443359375,0.06301949918270111,-0.1159350648522377,0.05609927698969841
1782942185038914600,2.38991455078125,0.056830573827028275,-0.11371505260467529,0.04972074180841446
1782942185048899300,2.3998994140625,0.04876358062028885,-0.10829941183328629,0.021352093666791916
1782942185058884400,2.40988427734375,0.04507243633270264,-0.09905717521905899,-0.014133729040622711
1782942185068869400,2.419869384765625,0.04757260903716087,-0.09727717190980911,-0.04567261040210724
1782942185078854400,2.4298544921875,0.05015614256262779,-0.09152554720640182,-0.05754870921373367
1782942185088839200,2.439839111328125,0.04433605819940567,-0.08538442850112915,-0.042571019381284714
1782942185098824400,2.449824462890625,0.029693998396396637,-0.08267972618341446,-0.01950857602059841
1782942185108809500,2.4598095703125,0.010665997862815857,-0.07748767733573914,0.009780057705938816
1782942185118794500,2.46979443359375,-0.009660312905907631,-0.06018485128879547,0.03215647116303444
1782942185128779500,2.479779541015625,-0.02499159425497055,-0.03230203688144684,0.03417980298399925
1782942185138764300,2.489764404296875,-0.03802457079291344,-0.005441127344965935,0.024380968883633614
1782942185148749300,2.499749267578125,-0.04740050435066223,0.014902413822710514,-0.002287456300109625
1782942185158734300,2.509734375,-0.05576123297214508,0.013849933631718159,-0.026084931567311287
1782942185168719400,2.51971923828125,-0.07274151593446732,0.00127350352704525,-0.04720787703990936
1782942185178704400,2.529704345703125,-0.08728689700365067,-0.0017324062064290047,-0.05474010109901428
1782942185188689400,2.539689453125,-0.09853450953960419,-0.004619406536221504,-0.05334266275167465
1782942185198674400,2.54967431640625,-0.10759858042001724,0.006546961143612862,-0.04888719320297241
1782942185208660500,2.559660400390625,-0.11204206198453903,0.028356384485960007,-0.04811221361160278
1782942185218645200,2.569645263671875,-0.10526591539382935,0.05364789068698883,-0.04731859266757965
1782942185228630300,2.57963037109375,-0.09812173247337341,0.07136808335781097,-0.053512293845415115
1782942185238615600,2.589615478515625,-0.08771862834692001,0.06774991750717163,-0.0591435469686985
1782942185248600600,2.5996005859375,-0.07455543428659439,0.04833771288394928,-0.06221776083111763
1782942185258585300,2.60958544921875,-0.054905302822589874,0.01679949089884758,-0.06173013523221016
1782942185268570400,2.6195703125,-0.031505148857831955,-0.01887781172990799,-0.05200761556625366
1782942185278555400,2.629555419921875,-0.00599526334553957,-0.05611040070652962,-0.0344720333814621
1782942185288540400,2.63954052734375,0.012408221140503883,-0.08655326068401337,-0.012035547755658627
1782942185298525400,2.649525390625,0.019821129739284515,-0.09721149504184723,0.007462519221007824
1782942185308510200,2.65951025390625,0.014780541881918907,-0.08455724269151688,0.007227843161672354
1782942185318495500,2.66949560546875,0.00946913380175829,-0.06732819229364395,-0.009998814202845097
1782942185328480500,2.67948046875,0.007995602674782276,-0.05276129022240639,-0.038196761161088943
1782942185338465500,2.689465576171875,0.006308489944785833,-0.04616490751504898,-0.06626381725072861
1782942185348450300,2.6994501953125,0.0038629318587481976,-0.0439230315387249,-0.0874372273683548
1782942185358435300,2.709435302734375,0.0021643678192049265,-0.04013681411743164,-0.09121279418468475
1782942185368420400,2.71942041015625,-0.002205834724009037,-0.02815208211541176,-0.08653277158737183
1782942185378405400,2.7294052734375,-0.004857012070715427,-0.00827344972640276,-0.07317809015512466
1782942185388390400,2.739390380859375,-0.013231579214334488,0.016426384449005127,-0.06152643263339996
1782942185398375400,2.74937548828125,-0.02359740063548088,0.0278627946972847,-0.05908351391553879
1782942185408361500,2.759361572265625,-0.031174656003713608,0.029385831207036972,-0.06900756806135178
1782942185418346500,2.769346435546875,-0.03357469663023949,0.02352607622742653,-0.08052600175142288
1782942185428331300,2.779331298828125,-0.030279045924544334,0.010652728378772736,-0.09467177838087082
1782942185438316300,2.78931640625,-0.022165460512042046,0.0077450890094041824,-0.09869341552257538
1782942185448301300,2.79930126953125,-0.007540455553680658,0.00785017665475607,-0.08502207696437836
1782942185458286600,2.80928662109375,0.009652912616729736,0.0317552424967289,-0.055443938821554184
1782942185468271600,2.819271728515625,0.028557632118463516,0.05879250541329384,-0.022771351039409637
1782942185478256400,2.82925634765625,0.046414926648139954,0.08533969521522522,-0.0041316207498312
1782942185488241400,2.839241455078125,0.06136592477560043,0.07807818800210953,0.0027152923867106438
1782942185498226400,2.849226318359375,0.06590314954519272,0.0563579797744751,-0.010593855753540993
1782942185508211500,2.85921142578125,0.061816003173589706,0.016698796302080154,-0.03183330222964287
1782942185518196200,2.8691962890625,0.05491495504975319,-0.02622337080538273,-0.054879236966371536
1782942185528181200,2.87918115234375,0.042280349880456924,-0.06749586760997772,-0.06956467777490616
1782942185538166500,2.88916650390625,0.02426619827747345,-0.09868893772363663,-0.06822404265403748
1782942185548151600,2.899151611328125,0.006896274629980326,-0.10673659294843674,-0.056354474276304245
1782942185558136600,2.909136474609375,-0.0064522880129516125,-0.09293848276138306,-0.04292388632893562
1782942185568121300,2.919121337890625,-0.008407577872276306,-0.08020268380641937,-0.05025803670287132
1782942185578106400,2.9291064453125,-0.007424871437251568,-0.10357671976089478,-0.07274310290813446
1782942185588092400,2.939092529296875,-0.0034506209194660187,-0.054507263004779816,-0.07706216722726822
1782942185598077200,2.9490771484375,-0.011928793974220753,0.02189377136528492,-0.0694364681839943
1782942185608062500,2.9590625,-0.042018525302410126,0.06839194893836975,-0.06305905431509018
1782942185618047500,2.969047607421875,-0.06548390537500381,0.09661639481782913,-0.06387744843959808
1782942185628032500,2.979032470703125,-0.07243107259273529,0.11318973451852798,-0.07204919308423996
1782942185638017500,2.989017578125,-0.06909093260765076,0.10061721503734589,-0.08104295283555984
1782942185648002300,2.999002197265625,-0.06209159269928932,0.05600210279226303,-0.09464206546545029
1782942185657987300,3.0089873046875,-0.046945132315158844,0.0003217952325940132,-0.09630148112773895
1782942185667972400,3.018972412109375,-0.024844586849212646,-0.04678750038146973,-0.0897487998008728
1782942185677957400,3.028957275390625,0.0027353749610483646,-0.08304830640554428,-0.06529724597930908
1782942185687942400,3.0389423828125,0.021618546918034554,-0.09893189370632172,-0.03237467259168625
1782942185697927400,3.048927490234375,0.03404858335852623,-0.09513209760189056,0.0019159228540956974
1782942185707912400,3.058912353515625,0.028656452894210815,-0.05670860409736633,0.028416525572538376
1782942185717897500,3.0688974609375,0.011140042915940285,-0.0033750738948583603,0.038456909358501434
1782942185727882500,3.078882568359375,-0.011371131986379623,0.048263538628816605,0.025782329961657524
1782942185737867300,3.0888671875,-0.030829517170786858,0.0799785852432251,-0.005855224095284939
1782942185747852300,3.098852294921875,-0.04592430964112282,0.08961716294288635,-0.046274956315755844
1782942185757837300,3.10883740234375,-0.04587424173951149,0.08854177594184875,-0.0767202153801918
1782942185767823400,3.1188232421875,-0.03294249624013901,0.08095114678144455,-0.09111610800027847
1782942185777808400,3.128808349609375,-0.019028278067708015,0.06670963019132614,-0.08155322819948196
1782942185787793400,3.13879345703125,0.007986306212842464,0.038966018706560135,-0.05904986336827278
1782942185797778400,3.1487783203125,0.03357502445578575,0.004273551516234875,-0.028780639171600342
1782942185807763500,3.158763427734375,0.052994512021541595,-0.03162524476647377,0.002322896383702755
1782942185817748200,3.168748291015625,0.05957518517971039,-0.05575694888830185,0.025834079831838608
1782942185827733500,3.1787333984375,0.05424782261252403,-0.06861037015914917,0.03897250071167946
1782942185837718500,3.188718505859375,0.04009152203798294,-0.0666729211807251,0.03074439987540245
1782942185847703600,3.19870361328125,0.0231612678617239,-0.06901951879262924,0.002666630782186985
1782942185857688300,3.208688232421875,0.008581261150538921,-0.04672219976782799,-0.026669686660170555
1782942185867677400,3.218677490234375,0.002445879625156522,-0.03431815654039383,-0.052746035158634186
1782942185877662500,3.228662353515625,-0.001691607292741537,-0.03835684061050415,-0.06441334635019302
1782942185887647700,3.238647705078125,0.0008234493434429169,-0.043580230325460434,-0.06300031393766403
1782942185897632500,3.248632568359375,0.007980961352586746,-0.035288210958242416,-0.04342741146683693
1782942185907617500,3.258617431640625,0.0219248179346323,-0.015867291018366814,-0.019020721316337585
1782942185917602600,3.2686025390625,0.028857026249170303,0.0167044997215271,0.006833511404693127
1782942185927587600,3.278587646484375,0.028933662921190262,0.04496769234538078,0.026728760451078415
1782942185937572400,3.288572265625,0.017285795882344246,0.05535188689827919,0.03210807964205742
1782942185947558700,3.29855859375,-0.0013850908726453781,0.05076994746923447,0.02311078831553459
1782942185957543700,3.308543701171875,-0.021957743912935257,0.042576465755701065,0.005997049622237682
1782942185967528700,3.31852880859375,-0.03359227627515793,0.03378771245479584,-0.012420585379004478
1782942185977513500,3.328513427734375,-0.037120699882507324,0.036632239818573,-0.028594229370355606
1782942185987498500,3.33849853515625,-0.03988265618681908,0.03718894347548485,-0.03626786544919014
1782942185997483500,3.3484833984375,-0.03636914864182472,0.02824525162577629,-0.04185624420642853
1782942186007468500,3.358468505859375,-0.0242784284055233,0.024712461978197098,-0.046148840337991714
1782942186017453300,3.368453369140625,-0.01597735285758972,0.01907747983932495,-0.05177183821797371
1782942186027438600,3.3784384765625,-0.00195443257689476,0.0015373695641756058,-0.05009061470627785
1782942186037423600,3.388423583984375,0.009192761033773422,-0.023574642837047577,-0.04932548850774765
1782942186047408600,3.39840869140625,0.01911969855427742,-0.049970243126153946,-0.036514490842819214
1782942186057393700,3.4083935546875,0.02712249755859375,-0.07291737198829651,-0.01566779613494873
1782942186067378400,3.41837841796875,0.02955469861626625,-0.09045367687940598,0.005046777427196503
1782942186077363500,3.428363525390625,0.026899263262748718,-0.0851510539650917,0.02128486894071102
1782942186087348500,3.438348388671875,0.026342123746871948,-0.07312560081481934,0.027550622820854187
1782942186097333500,3.44833349609375,0.025685656815767288,-0.05269862711429596,0.021993938833475113
1782942186107318500,3.458318603515625,0.014878547750413418,-0.03603203222155571,0.00780248548835516
1782942186117303600,3.468303466796875,0.004025900736451149,-0.026980746537446976,-0.010525655001401901
1782942186127289600,3.47828955078125,-0.007995067164301872,-0.021409040316939354,-0.03380221873521805
1782942186137274600,3.488274658203125,-0.022260289639234543,-0.013054437935352325,-0.046607229858636856
1782942186147259400,3.49825927734375,-0.040369536727666855,-0.003426548093557358,-0.04668997973203659
1782942186157244400,3.508244384765625,-0.05387629196047783,0.013312217779457569,-0.03578779473900795
1782942186167229400,3.5182294921875,-0.06606423109769821,0.03680635616183281,-0.0175602026283741
1782942186177214700,3.528214599609375,-0.07083980739116669,0.048513613641262054,0.0031738383695483208
1782942186187199500,3.538199462890625,-0.07386968284845352,0.05079064145684242,0.019502408802509308
1782942186197184500,3.5481845703125,-0.07206698507070541,0.05093738064169884,0.021427875384688377
1782942186207169500,3.55816943359375,-0.06155630573630333,0.04996005445718765,0.019749829545617104
1782942186217154600,3.568154541015625,-0.048549164086580276,0.05278167128562927,0.01057417318224907
1782942186227139600,3.5781396484375,-0.03809592127799988,0.0483243428170681,0.002521395217627287
1782942186237124400,3.588124267578125,-0.02956581860780716,0.030828174203634262,-0.0021567130461335182
1782942186247109400,3.598109375,-0.026137325912714005,0.006944490596652031,-0.00601086625829339
1782942186257094700,3.6080947265625,-0.01852840930223465,-0.019849305972456932,0.001599915325641632
1782942186267079700,3.61807958984375,-0.013132031075656414,-0.028864718973636627,0.00894576869904995
1782942186277064400,3.628064453125,-0.009060323238372803,-0.02504042163491249,0.01562657579779625
1782942186287049500,3.638049560546875,-0.015567474067211151,-0.009776034392416477,0.015109376981854439
1782942186297035500,3.648035400390625,-0.02115478552877903,0.0063257040455937386,0.011550862342119217
1782942186307020500,3.6580205078125,-0.026504047214984894,0.018623730167746544,-0.00029185879975557327
1782942186317005600,3.668005615234375,-0.02955230325460434,0.011765027418732643,-0.014076913706958294
1782942186326990600,3.677990478515625,-0.025051552802324295,-0.00520908460021019,-0.02482004091143608
1782942186336975600,3.6879755859375,-0.016432497650384903,-0.031102733686566353,-0.03269021585583687
1782942186346960600,3.697960693359375,-0.0050855535082519054,-0.05632800981402397,-0.0321229062974453
1782942186356945400,3.7079453125,0.005079465918242931,-0.0735597237944603,-0.024394411593675613
1782942186366930400,3.717930419921875,0.01510760560631752,-0.06497441232204437,-0.013295093551278114
1782942186376915500,3.72791552734375,0.020362820476293564,-0.041767895221710205,0.0026657632552087307
1782942186386900500,3.737900390625,0.02619881182909012,-0.021996816620230675,0.014193095266819
1782942186396885800,3.7478857421875,0.020723886787891388,-0.010916735045611858,0.02340257167816162
1782942186406870500,3.75787060546875,0.01159084215760231,-0.004911040887236595,0.01906881108880043
1782942186416855600,3.76785546875,0.00481975544244051,0.00015056319534778595,0.0163049828261137
1782942186426840600,3.777840576171875,-0.002440781332552433,0.010380554012954235,-0.004471162799745798
1782942186436825600,3.78782568359375,-0.003225614782422781,0.01567571610212326,-0.0230600256472826
1782942186446810400,3.797810302734375,-0.0033169174566864967,0.014596844092011452,-0.036646902561187744
1782942186456795400,3.80779541015625,0.00036490242928266525,0.004106119275093079,-0.03590254858136177
1782942186466781700,3.81778173828125,0.0030506979674100876,-0.0034407731145620346,-0.022645000368356705
1782942186476766500,3.827766357421875,0.0036589638330042362,-0.013090737164020538,-0.0010704658925533295
1782942186486751500,3.83775146484375,0.002824879251420498,-0.01799103245139122,0.022019196301698685
1782942186496736500,3.847736572265625,0.0016906389500945807,-0.015725214034318924,0.04245682433247566
1782942186506721500,3.857721435546875,-0.0020128311589360237,-0.005627969279885292,0.05155443772673607
1782942186516706600,3.86770654296875,-0.010718438774347305,0.006918980740010738,0.04863055422902107
1782942186526691300,3.87769140625,-0.01816326566040516,0.015190196223556995,0.028643833473324776
1782942186536676600,3.887676513671875,-0.023072270676493645,0.025558948516845703,0.0037632519379258156
1782942186546661600,3.89766162109375,-0.023477088660001755,0.037135761231184006,-0.024155717343091965
1782942186556646700,3.907646728515625,-0.02525394968688488,0.033469654619693756,-0.045036498457193375
1782942186566631700,3.917631591796875,-0.02455109730362892,0.021859578788280487,-0.057816170156002045
1782942186576616400,3.927616455078125,-0.025583339855074883,0.006302190013229847,-0.053681615740060806
1782942186586601500,3.9376015625,-0.024890683591365814,-0.007280838675796986,-0.03454504907131195
1782942186596586500,3.94758642578125,-0.023261360824108124,-0.015727054327726364,-0.0149894580245018
1782942186606571500,3.957571533203125,-0.017505990341305733,-0.02072005532681942,0.003866911632940173
1782942186616556500,3.967556640625,-0.003728126175701618,-0.02697768434882164,0.022791601717472076
1782942186626541600,3.97754150390625,0.006912498734891415,-0.022783363237977028,0.028891324996948242
1782942186636526600,3.987526611328125,0.019993679597973824,-0.010503260418772697,0.02827773615717888
1782942186646510600,3.997510498046875,0.027361571788787842,0.0118357352912426,0.020618289709091187
1782942186656496600,4.00749658203125,0.02974856272339821,0.024576831609010696,0.013576094061136246
1782942186666481400,4.0174814453125,0.01810235157608986,0.03180296719074249,0.008416779339313507
1782942186676466400,4.027466552734375,-0.0012167515233159065,0.02739064395427704,0.00046724360436201096
1782942186686451500,4.037451416015625,-0.01953907124698162,0.019737064838409424,-0.00864120852202177
1782942186696436700,4.047436767578125,-0.03450896590948105,0.0033764662221074104,-0.020859524607658386
1782942186706421500,4.05742138671875,-0.0468071848154068,-0.017688177525997162,-0.037978049367666245
1782942186716406500,4.067406494140625,-0.05142670497298241,-0.026075005531311035,-0.05153939872980118
1782942186726391600,4.0773916015625,-0.05130128189921379,-0.0299774669110775,-0.05040402337908745
1782942186736376600,4.08737646484375,-0.03899747505784035,-0.022319279611110687,-0.0430651493370533
1782942186746361600,4.097361572265625,-0.01770070567727089,-0.009016711264848709,-0.027067478746175766
1782942186756346400,4.107346435546875,0.008211053907871246,0.010030749253928661,-0.0027853078208863735
1782942186766331400,4.117331298828125,0.022678954526782036,0.019567687064409256,0.020197629928588867
1782942186776316700,4.127316650390625,0.02132340706884861,0.02718299627304077,0.032821811735630035
1782942186786301700,4.1373017578125,0.011969314888119698,0.03096250258386135,0.02500663697719574
1782942186796286500,4.147286376953125,-0.0014191949740052223,0.028404800221323967,0.006493939086794853
1782942186806271500,4.157271484375,-0.014078769832849503,0.021053198724985123,-0.027610786259174347
1782942186816256500,4.167256591796875,-0.023298900574445724,0.005741355009377003,-0.050941675901412964
1782942186826242600,4.17724267578125,-0.02157530188560486,-0.005044714547693729,-0.06318236142396927
1782942186836227300,4.187227294921875,-0.012043315917253494,-0.012003287672996521,-0.05963556468486786
1782942186846212600,4.197212646484375,0.009913126938045025,-0.010657460428774357,-0.03865072876214981
1782942186856197600,4.20719775390625,0.03216277435421944,-0.0025318898260593414,-0.00891120731830597
1782942186866178000,4.217177978515625,0.050914064049720764,-0.002491968683898449,0.02296917699277401
1782942186876163000,4.2271630859375,0.06796841323375702,-0.005261655896902084,0.04872540757060051
1782942186886148000,4.237148193359375,0.0778181180357933,-0.016919616609811783,0.0653727576136589
1782942186896132900,4.2471328125,0.08125972002744675,-0.016920415684580803,0.06576184928417206
1782942186906118000,4.257117919921875,0.07407793402671814,-0.020174235105514526,0.048001185059547424
1782942186916103000,4.26710302734375,0.05463393032550812,-0.023901594802737236,0.02210140973329544
1782942186926088200,4.277088134765625,0.03659716248512268,-0.03089820221066475,-0.0026644058525562286
1782942186936073000,4.287072998046875,0.02298601344227791,-0.045914970338344574,-0.023964103311300278
1782942186946058000,4.29705810546875,0.012212743051350117,-0.05649419128894806,-0.029938314110040665
1782942186956043000,4.30704296875,0.0015851324424147606,-0.05221528932452202,-0.022404763847589493
1782942186966028000,4.317028076171875,-0.006787322461605072,-0.035616710782051086,-0.002943175844848156
1782942186976013000,4.327012939453125,-0.015610108152031898,-0.010080725885927677,0.01442462857812643
1782942186985999000,4.3369990234375,-0.02314390055835247,0.01397270429879427,0.02835327759385109
1782942186995984100,4.346984130859375,-0.02049298956990242,0.024610169231891632,0.029842516407370567
1782942187005969200,4.35696923828125,-0.014021789655089378,0.027112819254398346,0.027274642139673233
1782942187015954000,4.366953857421875,-0.009417984634637833,0.01266517210751772,0.01555113960057497
1782942187025940000,4.37693994140625,-0.007195848040282726,-0.006794891785830259,0.008336042053997517
1782942187035925000,4.386925048828125,-0.011258500628173351,-0.026475384831428528,0.008181578479707241
1782942187045909800,4.39690966796875,-0.016186945140361786,-0.043241050094366074,0.011763263493776321
1782942187055895000,4.40689501953125,-0.027909651398658752,-0.05368490144610405,0.013873819261789322
1782942187065880000,4.416880126953125,-0.035605140030384064,-0.05897819995880127,0.019613077864050865
1782942187075865000,4.426864990234375,-0.03690050542354584,-0.052326686680316925,0.020762499421834946
1782942187085850000,4.43685009765625,-0.036471180617809296,-0.036868106573820114,0.01771196722984314
1782942187095835000,4.4468349609375,-0.031094256788492203,-0.010828249156475067,0.013934006914496422
1782942187105820000,4.45681982421875,-0.023875776678323746,0.018312115222215652,0.013753987848758698
1782942187115805000,4.466804931640625,-0.02451040782034397,0.024540714919567108,0.009475086815655231
1782942187125790000,4.4767900390625,-0.021090883761644363,0.010577254928648472,0.005097700282931328
1782942187135776000,4.48677587890625,-0.026754096150398254,-0.009998860768973827,-0.002403891645371914
1782942187145761000,4.496760986328125,-0.028064118698239326,-0.041091423481702805,-0.008183341473340988
1782942187155746000,4.50674609375,-0.03208309784531593,-0.07391595095396042,-0.011534931138157845
1782942187165731000,4.51673095703125,-0.024424906820058823,-0.08567404747009277,-0.01164338830858469
1782942187175715800,4.5267158203125,-0.014590386301279068,-0.07771119475364685,-0.006524527445435524
1782942187185700900,4.536700927734375,-0.0021766312420368195,-0.05167609825730324,0.0022002137266099453
1782942187195686100,4.54668603515625,0.01141960546374321,-0.015358302742242813,0.00982138141989708
1782942187205671200,4.556671142578125,0.021716464310884476,0.012421312741935253,0.019086576998233795
1782942187215656000,4.566656005859375,0.03064284846186638,0.03152736276388168,0.021481556817889214
1782942187225641000,4.576640869140625,0.031231693923473358,0.04230916500091553,0.019571125507354736
1782942187235626000,4.5866259765625,0.030832484364509583,0.03331726789474487,0.011321451514959335
1782942187245611000,4.596611083984375,0.030490009114146233,0.018352512270212173,-0.004580487497150898
1782942187255596000,4.606595947265625,0.036644309759140015,0.0018875198438763618,-0.018124792724847794
1782942187265580800,4.616580810546875,0.04304678365588188,-0.01789640635251999,-0.017867911607027054
1782942187275566000,4.626566162109375,0.04666362330317497,-0.024297047406435013,-0.007430983241647482
1782942187285551000,4.636551025390625,0.04503884166479111,-0.023205287754535675,0.0067191170528531075
1782942187295537000,4.646536865234375,0.04096553474664688,-0.020792461931705475,0.027066200971603394
1782942187305522000,4.65652197265625,0.03356223925948143,-0.020871508866548538,0.03921366110444069
1782942187315507000,4.6665068359375,0.023417726159095764,-0.016107913106679916,0.04230852052569389
1782942187325492000,4.676491943359375,0.019957982003688812,-0.01740444265305996,0.02918967418372631
1782942187335477000,4.68647705078125,0.013516329228878021,-0.010553726926445961,0.006881972309201956
1782942187345462000,4.6964619140625,0.013930179178714752,-0.007565205916762352,-0.020087923854589462
1782942187355447000,4.706447021484375,0.020148659124970436,-0.0021446077153086662,-0.035686857998371124
1782942187365432000,4.71643212890625,0.0280939731746912,0.00452444888651371,-0.03632277995347977
1782942187375417000,4.7264169921875,0.03692155331373215,0.011814584955573082,-0.027949001640081406
1782942187385401900,4.73640185546875,0.05314499884843826,0.00034437794238328934,-0.007518894970417023
1782942187395387000,4.746386962890625,0.06800250709056854,-0.03561335802078247,0.012225247919559479
1782942187405372000,4.756371826171875,0.08865479379892349,-0.08182027190923691,0.03467649593949318
1782942187415357000,4.76635693359375,0.1062186062335968,-0.12913131713867188,0.05851870775222778
1782942187425342200,4.77634228515625,0.11764088273048401,-0.145412877202034,0.07910656183958054
1782942187435327000,4.786326904296875,0.12443939596414566,-0.13288430869579315,0.10072796791791916
1782942187445312000,4.79631201171875,0.11953090876340866,-0.09790249913930893,0.11634994298219681
1782942187455297000,4.806297119140625,0.10726146399974823,-0.04884415119886398,0.1236768290400505
1782942187465282800,4.81628271484375,0.08986382186412811,-0.007420648355036974,0.11259622871875763
1782942187475267800,4.826267822265625,0.061225518584251404,0.022977471351623535,0.09741301089525223
1782942187485253000,4.836253173828125,0.03683577477931976,0.02955014817416668,0.060734741389751434
1782942187495238100,4.846238037109375,0.016455404460430145,0.029633240774273872,0.038241952657699585
1782942187505223000,4.856222900390625,0.011395910754799843,0.02192232757806778,0.02029239386320114
1782942187515208000,4.8662080078125,0.008524224162101746,0.013411663472652435,0.025777172297239304
1782942187525193000,4.87619287109375,-0.004368649795651436,0.008693096227943897,0.04508647695183754
1782942187535178000,4.886177978515625,-0.02419162169098854,0.013140841387212276,0.07037132233381271
1782942187545163000,4.8961630859375,-0.0513337068259716,0.028710559010505676,0.08102879673242569
1782942187555147800,4.906147705078125,-0.07213139533996582,0.05172693356871605,0.07333039492368698
1782942187565133000,4.916133056640625,-0.08471861481666565,0.07448380440473557,0.047813352197408676
1782942187575118000,4.9261181640625,-0.08918526768684387,0.08840308338403702,0.007188694551587105
1782942187585103000,4.93610302734375,-0.08539534360170364,0.09086573123931885,-0.026110593229532242
1782942187595088100,4.946088134765625,-0.06877242773771286,0.07668387144804001,-0.04795889928936958
1782942187605073000,4.956072998046875,-0.049253836274147034,0.04778878018260002,-0.05067054182291031
1782942187615058000,4.966057861328125,-0.03513934835791588,0.011883511207997799,-0.03498292714357376
1782942187625044200,4.976044189453125,-0.025658443570137024,-0.01995876245200634,-0.009635458700358868
1782942187635029000,4.986029052734375,-0.023362798616290092,-0.04419193044304848,0.011857850477099419
1782942187645014000,4.996013916015625,-0.015356868505477905,-0.06509718298912048,0.02855384722352028
1782942187654999000,5.0059990234375,-0.013733671978116035,-0.07724785059690475,0.041465383023023605
1782942187664984000,5.015984130859375,-0.0033667804673314095,-0.07844862341880798,0.041733697056770325
1782942187674968800,5.02596875,0.007263227365911007,-0.06138122081756592,0.047158822417259216
1782942187684953900,5.035953857421875,0.01206756941974163,-0.044160954654216766,0.04824246093630791
1782942187694939000,5.04593896484375,0.01047286856919527,-0.020379193127155304,0.04296993464231491
1782942187704924200,5.055924072265625,0.007540975231677294,-0.012074118480086327,0.03460722416639328
1782942187714909200,5.0659091796875,-0.0017396085895597935,-0.027281034737825394,0.02449413575232029
1782942187724894000,5.07589404296875,-0.016257554292678833,-0.06381495296955109,0.019038043916225433
1782942187734879000,5.08587890625,-0.03392975777387619,-0.11576949059963226,0.03220710903406143
1782942187744864000,5.095864013671875,-0.05984044447541237,-0.14549031853675842,0.05299054831266403
1782942187754849000,5.10584912109375,-0.07851054519414902,-0.11853912472724915,0.08664438128471375
1782942187764834000,5.115833984375,-0.10213087499141693,-0.05341365933418274,0.11053823679685593
1782942187774818800,5.12581884765625,-0.12551608681678772,0.009053713642060757,0.11642781645059586
1782942187784804000,5.13580419921875,-0.14472924172878265,0.05515216290950775,0.1015484407544136
1782942187794790100,5.1457900390625,-0.15701334178447723,0.08745922893285751,0.0781610906124115
1782942187804775000,5.15577490234375,-0.17494411766529083,0.1075897216796875,0.05939704179763794
1782942187814760000,5.165760009765625,-0.1854684054851532,0.12053029239177704,0.04647272080183029
1782942187824745000,5.175744873046875,-0.19466185569763184,0.11730971932411194,0.051360130310058594
1782942187834730000,5.18572998046875,-0.19729918241500854,0.09664252400398254,0.06938520073890686
1782942187844714800,5.19571484375,-0.19542063772678375,0.06069837138056755,0.09391134977340698
1782942187854700000,5.205699951171875,-0.19043226540088654,0.0206923708319664,0.11987476795911789
1782942187864684800,5.215684814453125,-0.18784180283546448,0.001048065721988678,0.1325039267539978
1782942187874669800,5.225669921875,-0.19592608511447906,-0.00000894349068403244,0.12383134663105011
1782942187884654800,5.23565478515625,-0.1967218965291977,0.026128744706511497,0.10328476130962372
1782942187894639900,5.245639892578125,-0.20139335095882416,0.05361523479223251,0.07317958772182465
1782942187904625000,5.255625,-0.2020377814769745,0.07096049189567566,0.045362308621406555
1782942187914610000,5.26560986328125,-0.20116665959358215,0.05658288300037384,0.030937032774090767
1782942187924595000,5.275594970703125,-0.19416575133800507,0.02220829203724861,0.026372646912932396
1782942187934580000,5.285580078125,-0.17791114747524261,-0.012927855364978313,0.03817018121480942
1782942187944564700,5.295564697265625,-0.16821113228797913,-0.03585812449455261,0.05350593850016594
1782942187954551000,5.305551025390625,-0.1619391292333603,-0.029658816754817963,0.0724836215376854
1782942187964536000,5.3155361328125,-0.16439001262187958,-0.0076667810790240765,0.0729404166340828
1782942187974520800,5.325520751953125,-0.17629274725914001,0.010310621000826359,0.0524497851729393
1782942187984505900,5.335505859375,-0.1922549605369568,0.021093182265758514,0.0016137859784066677
1782942187994491000,5.345490966796875,-0.2028660625219345,0.026262909173965454,-0.054524049162864685
1782942188004476000,5.355475830078125,-0.20677581429481506,0.039075639098882675,-0.1067517101764679
1782942188014461000,5.3654609375,-0.20740406215190887,0.06390855461359024,-0.1345471292734146
1782942188024445700,5.37544580078125,-0.2043110728263855,0.09814944863319397,-0.1296250820159912
1782942188034431000,5.385430908203125,-0.1844249814748764,0.13834480941295624,-0.09926611185073853
1782942188044416000,5.395416015625,-0.14978337287902832,0.18365684151649475,-0.06242194026708603
1782942188054401000,5.405401123046875,-0.11047964543104172,0.22557179629802704,-0.029778506606817245
1782942188064385800,5.4153857421875,-0.0662088617682457,0.26049456000328064,-0.015920812264084816
1782942188074370800,5.425370849609375,-0.02656104974448681,0.25564172863960266,-0.01841166615486145
1782942188084355800,5.43535595703125,0.011171435937285423,0.2014072686433792,-0.04537978023290634
1782942188094340900,5.4453408203125,0.04166968911886215,0.11133887618780136,-0.06622754037380219
1782942188104326000,5.455325927734375,0.07139880210161209,0.022563427686691284,-0.07117008417844772
1782942188114312000,5.46531201171875,0.09798620641231537,-0.04532773792743683,-0.059153370559215546
1782942188124297000,5.475296875,0.12062763422727585,-0.10594773292541504,-0.0379776693880558
1782942188134282000,5.485281982421875,0.15073733031749725,-0.15080896019935608,-0.010404628701508045
1782942188144266800,5.495266845703125,0.17015069723129272,-0.1655385047197342,0.0114394910633564
1782942188154251800,5.505251708984375,0.19060750305652618,-0.15369994938373566,0.034451600164175034
1782942188164236800,5.51523681640625,0.19429486989974976,-0.11167554557323456,0.04520101100206375
1782942188174221800,5.525221923828125,0.19406025111675262,-0.07240936160087585,0.0558917373418808
1782942188184206800,5.535206787109375,0.18541303277015686,-0.04773276299238205,0.06371639668941498
1782942188194192000,5.54519189453125,0.17587865889072418,-0.029661618173122406,0.07475493103265762
1782942188204177000,5.555177001953125,0.16186372935771942,-0.02026507817208767,0.08536125719547272
1782942188214162000,5.565161865234375,0.1554172784090042,-0.04406255483627319,0.09424450248479843
1782942188224147000,5.57514697265625,0.1501580774784088,-0.08714176714420319,0.10149236023426056
1782942188234131700,5.585131591796875,0.12460717558860779,-0.10632265359163284,0.10532038658857346
1782942188244116700,5.59511669921875,0.08771947771310806,-0.11704576760530472,0.09482938796281815
1782942188254101800,5.605101806640625,0.05333647131919861,-0.11210160702466965,0.0770229622721672
1782942188264087000,5.615087158203125,0.023741792887449265,-0.06388258934020996,0.05944112688302994
1782942188274072800,5.62507275390625,-0.01224017608910799,0.013824986293911934,0.04333672672510147
1782942188284057900,5.635057861328125,-0.04704317823052406,0.08883433043956757,0.02554621919989586
1782942188294043000,5.64504296875,-0.08016784489154816,0.15869703888893127,0.011132392100989819
1782942188304028000,5.65502783203125,-0.1007138192653656,0.2058161050081253,-0.011878477409482002
1782942188314012700,5.6650126953125,-0.09910739958286285,0.21472729742527008,-0.03926669433712959
1782942188323998000,5.674998046875,-0.08067221939563751,0.19859416782855988,-0.05862513557076454
1782942188333983000,5.68498291015625,-0.0511004775762558,0.15330897271633148,-0.06803594529628754
1782942188343968000,5.694968017578125,-0.01369638741016388,0.088887058198452,-0.05882606655359268
1782942188353952800,5.704952880859375,0.025245951488614082,0.021735984832048416,-0.03177687153220177
1782942188363937800,5.714937744140625,0.05916820839047432,-0.02655891515314579,-0.0025374097749590874
1782942188373922800,5.7249228515625,0.08604083210229874,-0.03959455341100693,0.03122588060796261
1782942188383907800,5.734907958984375,0.1085994765162468,-0.02866322547197342,0.0578729547560215
1782942188393892900,5.744892822265625,0.12136401236057281,-0.00321192666888237,0.0639878436923027
1782942188403878000,5.7548779296875,0.12510281801223755,0.022958904504776,0.05206926539540291
1782942188413863000,5.76486279296875,0.11759109795093536,0.023729357868433,0.014638270251452923
1782942188423848000,5.774847900390625,0.10162776708602905,0.010837466455996037,-0.04313502460718155
1782942188433833700,5.784833740234375,0.09419381618499756,-0.017012806609272957,-0.09621741622686386
1782942188443818800,5.79481884765625,0.09106278419494629,-0.04663636535406113,-0.1267186999320984
1782942188453803800,5.8048037109375,0.0934487134218216,-0.08366522192955017,-0.13259389996528625
1782942188463788800,5.814788818359375,0.09567725658416748,-0.10402676463127136,-0.11987964808940887
1782942188473774000,5.824774169921875,0.09969650208950043,-0.10647127777338028,-0.08626069873571396
1782942188483758800,5.8347587890625,0.11205299943685532,-0.10058216750621796,-0.048963502049446106
1782942188493743900,5.844743896484375,0.11810716241598129,-0.08110913634300232,-0.016838055104017258
1782942188503729000,5.85472900390625,0.11622755974531174,-0.06221862882375717,0.005404694937169552
1782942188513714000,5.8647138671875,0.11090337485074997,-0.04176022484898567,0.016637641936540604
1782942188523698700,5.87469873046875,0.10161051154136658,-0.02814587950706482,0.016835128888487816
1782942188533683700,5.88468359375,0.09032057225704193,-0.009635045193135738,0.00014456594362854958
1782942188543668700,5.894668701171875,0.071500264108181,-0.00539691187441349,-0.02576245181262493
1782942188553654000,5.904654052734375,0.044490747153759,-0.008024919778108597,-0.051048364490270615
1782942188563639000,5.91463916015625,0.018178965896368027,-0.007078932132571936,-0.07056686282157898
1782942188573623800,5.924623779296875,-0.011429792270064354,-0.00612738449126482,-0.08207331597805023
1782942188583609900,5.93460986328125,-0.036784376949071884,0.000006130896508693695,-0.07711054384708405
1782942188593595000,5.944594970703125,-0.05468215420842171,0.015889756381511688,-0.06384293735027313
1782942188603579600,5.95457958984375,-0.059820499271154404,0.033816009759902954,-0.04422014206647873
1782942188613565000,5.96456494140625,-0.054100293666124344,0.05083867162466049,-0.022462647408246994
1782942188623550000,5.974550048828125,-0.045193351805210114,0.06919080764055252,0.0020604701712727547
1782942188633535000,5.984534912109375,-0.0322226919233799,0.08142510056495667,0.02108902297914028
1782942188643520000,5.99452001953125,-0.02451842650771141,0.07498296350240707,0.03607742115855217
1782942188653504800,6.0045048828125,-0.02535359561443329,0.05744285136461258,0.039049241691827774
1782942188663489800,6.01448974609375,-0.03284503147006035,0.03255182132124901,0.028211353346705437
1782942188673474800,6.024474853515625,-0.04743462800979614,0.007000922225415707,0.01186700165271759
1782942188683459800,6.0344599609375,-0.0629723072052002,-0.011754680424928665,-0.008084801025688648
1782942188693444900,6.04444482421875,-0.07948816567659378,-0.005247512832283974,-0.0204639732837677
1782942188703430000,6.054429931640625,-0.09993698447942734,0.0226473119109869,-0.029838502407073975
1782942188713415000,6.064414794921875,-0.1161404550075531,0.058352045714855194,-0.028162308037281036
1782942188723400000,6.07439990234375,-0.13218708336353302,0.09964622557163239,-0.02463320828974247
1782942188733385000,6.084385009765625,-0.1368151307106018,0.11972672492265701,-0.01603199541568756
1782942188743370800,6.094370849609375,-0.13673469424247742,0.12230470031499863,-0.020315492525696754
1782942188753356000,6.10435595703125,-0.12500187754631042,0.10560987144708633,-0.028553714975714684
1782942188763341000,6.114341064453125,-0.10726627707481384,0.07003813982009888,-0.03460575267672539
1782942188773325800,6.124325927734375,-0.08464165776968002,0.023914314806461334,-0.03216150403022766
1782942188783310800,6.134310791015625,-0.06932979077100754,-0.02214934676885605,-0.022406425327062607
1782942188793296000,6.1442958984375,-0.06177014485001564,-0.05909138545393944,-0.005117448978126049
1782942188803281000,6.154281005859375,-0.060746144503355026,-0.08930476009845734,0.020997831597924232
1782942188813266000,6.164265869140625,-0.0580182708799839,-0.09037669003009796,0.031598541885614395
1782942188823250700,6.174250732421875,-0.06216031685471535,-0.08158846199512482,0.028978418558835983
1782942188833236000,6.184236083984375,-0.07028749585151672,-0.05090352147817612,0.00843719020485878
1782942188843221000,6.194220947265625,-0.07444413751363754,-0.01575528085231781,-0.024323690682649612
1782942188853206000,6.2042060546875,-0.0774761512875557,0.012360243126749992,-0.052637357264757156
1782942188863191800,6.21419189453125,-0.07424036413431168,0.019778475165367126,-0.07007096707820892
1782942188873176800,6.2241767578125,-0.07088451087474823,0.008255510590970516,-0.06703602522611618
1782942188883161900,6.234161865234375,-0.06449005007743835,-0.00896640308201313,-0.046860553324222565
1782942188893147000,6.24414697265625,-0.054514382034540176,-0.034573230892419815,-0.02456643432378769
1782942188903133000,6.2541328125,-0.03045271709561348,-0.059300363063812256,-0.0034564929082989693
1782942188913118000,6.264117919921875,-0.007906926795840263,-0.07615817338228226,0.01763760671019554
1782942188923103000,6.27410302734375,0.006665101274847984,-0.08783174306154251,0.03286602348089218
1782942188933087700,6.284087646484375,0.005158817395567894,-0.08965068310499191,0.044133059680461884
1782942188943072800,6.29407275390625,-0.00419690553098917,-0.07803366333246231,0.05187908560037613
1782942188953057800,6.304057861328125,-0.019050952047109604,-0.053273461759090424,0.04242672771215439
1782942188963043000,6.31404296875,-0.03733108937740326,-0.019955407828092575,0.03095884621143341
1782942188973027800,6.32402783203125,-0.05543126165866852,0.01564546301960945,0.01145491935312748
1782942188983012900,6.334012939453125,-0.06517234444618225,0.04652545601129532,-0.005575705785304308
1782942188992998000,6.343997802734375,-0.06165004521608353,0.06507463753223419,-0.023904111236333847
1782942189002983000,6.35398291015625,-0.04937371239066124,0.05544412508606911,-0.026011712849140167
1782942189012968000,6.363968017578125,-0.028458576649427414,0.04045825079083443,-0.02777685597538948
1782942189022952700,6.37395263671875,-0.009815378114581108,0.017782311886548996,-0.012970948591828346
1782942189032937700,6.383937744140625,0.010485099628567696,-0.009465552866458893,0.01342843472957611
1782942189042923000,6.393923095703125,0.021707158535718918,-0.03230496495962143,0.03605762869119644
1782942189052908800,6.40390869140625,0.0273786261677742,-0.04042893648147583,0.04999501258134842
1782942189062893800,6.413893798828125,0.027793755754828453,-0.04130592197179794,0.04933558776974678
1782942189072878800,6.42387890625,0.032376788556575775,-0.03560915216803551,0.031973376870155334
1782942189082863900,6.43386376953125,0.041959673166275024,-0.04542059823870659,0.011307159438729286
1782942189092849000,6.443848876953125,0.05448558181524277,-0.04381231591105461,-0.01268073171377182
1782942189102833700,6.453833740234375,0.06338004022836685,-0.040461957454681396,-0.019418947398662567
1782942189112819000,6.46381884765625,0.0650453120470047,-0.039125584065914154,-0.022491704672574997
1782942189122804000,6.473803955078125,0.06890977919101715,-0.040742963552474976,-0.01632951758801937
1782942189132789000,6.4837890625,0.07036519795656204,-0.046457044780254364,-0.007082490250468254
1782942189142773800,6.493773681640625,0.07522419840097427,-0.05821094289422035,-0.004592273384332657
1782942189152758800,6.5037587890625,0.0803702250123024,-0.0817176029086113,-0.009024572558701038
1782942189162743800,6.513743896484375,0.08340035378932953,-0.10341501235961914,-0.015874482691287994
1782942189172728800,6.523728759765625,0.09317575395107269,-0.10550586134195328,-0.02596386894583702
1782942189182713900,6.5337138671875,0.10859278589487076,-0.10178685933351517,-0.03171815723180771
1782942189192699000,6.543698974609375,0.12573182582855225,-0.08939943462610245,-0.03298448771238327
1782942189202684000,6.553683837890625,0.14273424446582794,-0.07348491251468658,-0.02443734183907509
1782942189212670000,6.563669921875,0.15181802213191986,-0.0599731020629406,-0.013267775997519493
1782942189222654700,6.57365478515625,0.1481231451034546,-0.05346231162548065,-0.006509999744594097
1782942189232639700,6.5836396484375,0.14065617322921753,-0.051258813589811325,-0.010303139686584473
1782942189242624800,6.593624755859375,0.12235837429761887,-0.04819425567984581,-0.01477031596004963
1782942189252610000,6.603610107421875,0.1062861979007721,-0.049121301621198654,-0.030746353790163994
1782942189262594800,6.6135947265625,0.08922120928764343,-0.0378790907561779,-0.045812129974365234
1782942189272579800,6.623579833984375,0.0817561000585556,-0.03249364718794823,-0.06061664596199989
1782942189282564900,6.63356494140625,0.09105318039655685,-0.02832811139523983,-0.07579752057790756
1782942189292550000,6.6435498046875,0.098748117685318,-0.02567853406071663,-0.08326848596334457
1782942189302535000,6.653534912109375,0.10759913176298141,-0.028373464941978455,-0.09126228839159012
1782942189312519700,6.663519775390625,0.10944709926843643,-0.026823770254850388,-0.07759121805429459
1782942189322504700,6.673504638671875,0.10895495116710663,-0.019946079701185226,-0.05676337704062462
1782942189332490000,6.683489990234375,0.09675900638103485,-0.019380424171686172,-0.03589697554707527
1782942189342475000,6.69347509765625,0.08782253414392471,-0.0357273668050766,-0.02195088379085064
1782942189352460000,6.7034599609375,0.07549289613962173,-0.05587657541036606,-0.030939849093556404
1782942189362445800,6.71344580078125,0.07778798043727875,-0.08164750039577484,-0.05290905013680458
1782942189372430800,6.723430908203125,0.08413749188184738,-0.08757542818784714,-0.08038514852523804
1782942189382416000,6.733415771484375,0.09415095299482346,-0.06753883510828018,-0.10166186094284058
1782942189392401000,6.74340087890625,0.09985224902629852,-0.03253877907991409,-0.1103309839963913
1782942189402386000,6.753385986328125,0.0985502377152443,0.0011188620701432228,-0.10154221951961517
1782942189412371000,6.763370849609375,0.08821051567792892,-0.03661173954606056,-0.09249972552061081
1782942189422356000,6.77335595703125,0.08571780472993851,0.002106758765876293,-0.07130397111177444
1782942189432340700,6.7833408203125,0.09159620106220245,0.02745898813009262,-0.05918179079890251
1782942189442325800,6.79332568359375,0.09697182476520538,0.01903582736849785,-0.04968231916427612
1782942189452310800,6.803310791015625,0.09482797980308533,0.0051658181473612785,-0.04486972093582153
1782942189462295800,6.8132958984375,0.0911804735660553,-0.013082469813525677,-0.03750245273113251
1782942189472281000,6.823281005859375,0.08426371216773987,-0.024244843050837517,-0.029499653726816177
1782942189482265900,6.833265869140625,0.08277981728315353,-0.029125865548849106,-0.03385493531823158
1782942189492251000,6.8432509765625,0.08623207360506058,-0.027020368725061417,-0.04671107977628708
1782942189502236000,6.85323583984375,0.09659390151500702,-0.01861167885363102,-0.06260009855031967
1782942189512221700,6.8632216796875,0.09791482985019684,-0.011974814347922802,-0.07139598578214645
1782942189522206700,6.873206787109375,0.10067440569400787,-0.013273586519062519,-0.06873109191656113
1782942189532191700,6.883191650390625,0.0873173177242279,-0.009004272520542145,-0.04877390339970589
1782942189542177000,6.893177001953125,0.08222083747386932,-0.004300706088542938,-0.030020326375961304
1782942189552162000,6.903162109375,0.07191547006368637,0.003311939537525177,-0.0108085498213768
1782942189562146800,6.913146728515625,0.061654575169086456,0.01135652232915163,0.002732359804213047
1782942189572131800,6.9231318359375,0.05055265873670578,0.015750739723443985,0.0065553272143006325
1782942189582116900,6.933116943359375,0.04067258536815643,0.0021698446944355965,0.0008111605420708656
1782942189592102000,6.943101806640625,0.03814791142940521,-0.02275654301047325,-0.006197214126586914
1782942189602086700,6.953086669921875,0.04024646431207657,-0.040636949241161346,-0.01039168145507574
1782942189612071700,6.96307177734375,0.042933326214551926,-0.05377751961350441,-0.010219375602900982
1782942189622057000,6.973056884765625,0.03853166848421097,-0.04238355904817581,-0.006007194519042969
1782942189632042000,6.9830419921875,0.030753372237086296,-0.021119818091392517,0.0013947952538728714
1782942189642027000,6.993027099609375,0.021910931915044785,-0.000996071845293045,0.005155677441507578
1782942189652011800,7.00301171875,0.0018956775311380625,0.011117316782474518,0.004134887829422951
1782942189661997800,7.012997802734375,-0.013924633152782917,0.019055064767599106,0.0035017007030546665
1782942189671982800,7.02298291015625,-0.029096130281686783,0.02611244097352028,-0.002906929701566696
1782942189681967900,7.0329677734375,-0.03507357835769653,0.018361277878284454,-0.008954782038927078
1782942189691953000,7.042952880859375,-0.03296968340873718,-0.002801264636218548,-0.007287376560270786
1782942189701938000,7.05293798828125,-0.03004230558872223,-0.07593183219432831,-0.011436201632022858
1782942189711923000,7.0629228515625,-0.014173059724271297,-0.06306982785463333,0.006453849375247955
1782942189721908000,7.072907958984375,0.002476173685863614,-0.05175710842013359,0.02202412113547325
1782942189731892700,7.082892822265625,0.0070261843502521515,-0.04093269258737564,0.029854614287614822
1782942189741877800,7.092877685546875,0.003463172819465399,-0.02742578461766243,0.028264153748750687
1782942189751862800,7.10286279296875,-0.003224290907382965,-0.019140956923365593,0.020146837458014488
1782942189761848000,7.11284814453125,-0.012207419611513615,-0.007032891735434532,0.008663967251777649
1782942189771832800,7.122832763671875,-0.027035102248191833,-0.009623348712921143,-0.010131824761629105
1782942189781817900,7.13281787109375,-0.045910514891147614,-0.013420353643596172,-0.031129591166973114
1782942189791803000,7.142802978515625,-0.059574663639068604,-0.018467310816049576,-0.050330184400081635
1782942189801788000,7.152787841796875,-0.062444720417261124,-0.028565168380737305,-0.06694086641073227
1782942189811773000,7.16277294921875,-0.06002870574593544,-0.040188536047935486,-0.06375306844711304
1782942189821758700,7.1727587890625,-0.05328534170985222,-0.04689740389585495,-0.0527186393737793
1782942189831744000,7.182743896484375,-0.042799144983291626,-0.04761885479092598,-0.04096477851271629
1782942189841729000,7.19272900390625,-0.03352149948477745,-0.04392728582024574,-0.029940616339445114
1782942189851713800,7.2027138671875,-0.021513041108846664,-0.026202350854873657,-0.019716475158929825
1782942189861698800,7.21269873046875,-0.008887792006134987,0.0005981037393212318,-0.012104094959795475
1782942189871682600,7.2226826171875,-0.007612669840455055,0.01831052079796791,-0.013891874812543392
1782942189881667600,7.23266748046875,-0.01266385242342949,0.018925894051790237,-0.02676515281200409
1782942189891652600,7.242652587890625,-0.014326730743050575,-0.003215363249182701,-0.038224734365940094
1782942189901637600,7.2526376953125,-0.017081260681152344,-0.027061596512794495,-0.04958369955420494
1782942189911622400,7.262622314453125,-0.009316548705101013,-0.049752261489629745,-0.06501831114292145
1782942189921607700,7.272607666015625,-0.008641171269118786,-0.05446019768714905,-0.0645943433046341
1782942189931592700,7.2825927734375,-0.0018639587797224522,-0.053430620580911636,-0.061276305466890335
1782942189941577700,7.29257763671875,0.0008740052580833435,-0.024359196424484253,-0.047590501606464386
1782942189951562800,7.302562744140625,0.007979851216077805,0.029122402891516685,-0.027351010590791702
1782942189961547500,7.312547607421875,0.00884458888322115,0.079377181828022,-0.014174029231071472
1782942189971533600,7.322533447265625,-0.0016812891699373722,0.10476189851760864,-0.0069043985567986965
1782942189981518600,7.3325185546875,-0.017293766140937805,0.11805396527051926,-0.012948399409651756
1782942189991503600,7.342503662109375,-0.027459319680929184,0.11065810173749924,-0.023430602625012398
1782942190001488600,7.352488525390625,-0.030631430447101593,0.07868552207946777,-0.04631180316209793
1782942190011473700,7.3624736328125,-0.02742711454629898,0.05153779312968254,-0.06684637069702148
1782942190021458700,7.372458740234375,-0.01850580982863903,0.03544085472822189,-0.08091863244771957
1782942190031443700,7.382443603515625,-0.00797327421605587,0.019086383283138275,-0.08268190920352936
1782942190041428500,7.392428466796875,-0.003212809097021818,0.014940151944756508,-0.08153573423624039
1782942190051413500,7.40241357421875,-0.0031664702109992504,0.02150777354836464,-0.07486505061388016
1782942190061398500,7.4123984375,0.005483674351125956,0.022155893966555595,-0.06185612827539444
1782942190071383800,7.4223837890625,0.015507280826568604,0.014367744326591492,-0.050704941153526306
1782942190081368600,7.43236865234375,0.017727594822645187,0.0008543217554688454,-0.04537704586982727
1782942190091353600,7.442353515625,0.02130315452814102,-0.009875820018351078,-0.055215299129486084
1782942190101338600,7.452338623046875,0.034264206886291504,-0.028095833957195282,-0.0688081830739975
1782942190111323600,7.46232373046875,0.05237077549099922,-0.0072065298445522785,-0.07764322310686111
1782942190121309400,7.472309326171875,0.056517571210861206,0.0382595993578434,-0.07996509224176407
1782942190131294700,7.482294677734375,0.044121887534856796,0.061224836856126785,-0.07393516600131989
1782942190141279700,7.49227978515625,0.02437456324696541,0.06769119203090668,-0.07952941209077835
1782942190151264800,7.5022646484375,0.004223488736897707,0.06758840382099152,-0.08876898139715195
1782942190161249500,7.51224951171875,0.004767550155520439,0.06970850378274918,-0.10969635844230652
1782942190171234600,7.522234619140625,0.01789799891412258,0.054607048630714417,-0.12993450462818146
1782942190181219600,7.532219482421875,0.04201987385749817,0.01743636280298233,-0.1447024941444397
1782942190191204600,7.54220458984375,0.05074013024568558,-0.0175786130130291,-0.1530914604663849
1782942190201189600,7.552189697265625,0.0532941035926342,-0.06436499953269958,-0.15651766955852509
1782942190211174700,7.562174560546875,0.06425461173057556,-0.08805914223194122,-0.14484131336212158
1782942190221159700,7.57215966796875,0.07659700512886047,-0.04393140971660614,-0.12095913290977478
1782942190231144700,7.582144775390625,0.08087696880102158,0.027325190603733063,-0.09598533809185028
1782942190241129700,7.592129638671875,0.08190815895795822,0.06403379887342453,-0.08979728817939758
1782942190251114500,7.602114501953125,0.07254128903150558,0.054389163851737976,-0.09813351184129715
1782942190261099500,7.612099609375,0.05746302753686905,0.02503771334886551,-0.11676980555057526
1782942190271085600,7.62208544921875,0.0371476374566555,0.0002793706953525543,-0.15272513031959534
1782942190281070600,7.632070556640625,0.03741447627544403,0.021920911967754364,-0.18298983573913574
1782942190291055600,7.6420556640625,0.035029347985982895,0.23757332563400269,0.025790279731154442
1782942190301040600,7.65204052734375,0.025219038128852844,-0.0974326953291893,0.1115342304110527
1782942190311025700,7.662025634765625,0.05815728008747101,-0.2540681064128876,0.1195942834019661
1782942190321010700,7.6720107421875,0.11018668860197067,-0.24928228557109833,0.014359256252646446
1782942190330995500,7.681995361328125,0.12282552570104599,-0.15986904501914978,-0.1439020186662674
1782942190340980500,7.69198046875,0.09839367866516113,-0.007717594504356384,-0.2704533040523529
1782942190350965500,7.701965576171875,0.061822883784770966,0.19497638940811157,-0.31027552485466003
1782942190360950800,7.71195068359375,0.039974018931388855,0.25547775626182556,-0.29058486223220825
