time,seconds_elapsed,z,y,x
1782942140029956000,0.0799560546875,-0.21213595569133759,0.11340190470218658,-0.00018610060214996338
1782942140039941400,0.08994140625,-0.19860577583312988,0.05412888526916504,-0.080526202917099
1782942140049926400,0.099926513671875,-0.17828506231307983,-0.0053839776664972305,-0.13053211569786072
1782942140059911200,0.1099111328125,-0.1448034942150116,-0.04582829028367996,-0.15574608743190765
1782942140069896200,0.119896240234375,-0.11213982105255127,-0.07331903278827667,-0.17205901443958282
1782942140079881200,0.129881103515625,-0.08072016388177872,-0.10634928941726685,-0.18867669999599457
1782942140089866200,0.1398662109375,-0.05167067050933838,-0.15845324099063873,-0.21343638002872467
1782942140099851000,0.14985107421875,-0.02797604911029339,-0.21061383187770844,-0.2260456085205078
1782942140109836000,0.1598359375,-0.020848896354436874,-0.2279491424560547,-0.22419151663780212
1782942140119821300,0.1698212890625,-0.02193596586585045,-0.1935938149690628,-0.2102915644645691
1782942140129806300,0.179806396484375,-0.0305520910769701,-0.1025102511048317,-0.19392724335193634
1782942140139791400,0.189791259765625,-0.031171727925539017,-0.000021328218281269073,-0.16116441786289215
1782942140149776100,0.199776123046875,-0.026835836470127106,0.08333241939544678,-0.09625652432441711
1782942140159761200,0.20976123046875,-0.011058532632887363,0.13026054203510284,-0.00417123781517148
1782942140169746200,0.21974609375,0.022111672908067703,0.14029107987880707,0.07818062603473663
1782942140179731200,0.229731201171875,0.07242012768983841,0.12848776578903198,0.11527079343795776
1782942140189716200,0.23971630859375,0.10759728401899338,0.0955553874373436,0.11443882435560226
1782942140199701200,0.249701171875,0.12304280698299408,0.028415894135832787,0.09220603853464127
1782942140209686300,0.259686279296875,0.11117362976074219,-0.022729050368070602,0.05998178571462631
1782942140219671300,0.26967138671875,0.08036088943481445,-0.03469061851501465,0.033566005527973175
1782942140229656300,0.27965625,0.04904211685061455,-0.041472092270851135,0.00988837145268917
1782942140239641000,0.28964111328125,0.025807620957493782,-0.05766396224498749,0.014137187041342258
1782942140249626000,0.299626220703125,0.02500840649008751,-0.06910862773656845,0.041091836988925934
1782942140259611100,0.309611083984375,0.03417450562119484,-0.062056850641965866,0.07590912282466888
1782942140269596200,0.31959619140625,0.04904266819357872,-0.0739167109131813,0.11161571741104126
1782942140279581200,0.329581298828125,0.07075009495019913,-0.08882028609514236,0.15674272179603577
1782942140289566200,0.339566162109375,0.08941353112459183,-0.10614175349473953,0.19323867559432983
1782942140299551200,0.34955126953125,0.10405100136995316,-0.12266632914543152,0.19555220007896423
1782942140309536300,0.359536376953125,0.09961310774087906,-0.13233919441699982,0.1511399894952774
1782942140319521300,0.369521240234375,0.0852925181388855,-0.12735222280025482,0.07242845743894577
1782942140329506000,0.379506103515625,0.07562950253486633,-0.11779946833848953,-0.018935544416308403
1782942140339491000,0.389490966796875,0.07553394883871078,-0.13731206953525543,-0.08114654570817947
1782942140349476000,0.39947607421875,0.08453542739152908,-0.18567641079425812,-0.09711858630180359
1782942140359461400,0.40946142578125,0.08454443514347076,-0.19976603984832764,-0.08611045032739639
1782942140369446400,0.4194462890625,0.07735921442508698,-0.18717060983181,-0.06431248039007187
1782942140379431200,0.42943115234375,0.062425315380096436,-0.16366633772850037,-0.028865691274404526
1782942140389416200,0.439416259765625,0.053586285561323166,-0.10854608565568924,0.013444747775793076
1782942140399401200,0.449401123046875,0.043746642768383026,-0.0554303303360939,0.058953944593667984
1782942140409387000,0.459386962890625,0.03876786306500435,-0.0449926033616066,0.09466800093650818
1782942140419372300,0.469372314453125,0.04599016159772873,-0.06827740371227264,0.11077908426523209
1782942140429357300,0.479357421875,0.05907054245471954,-0.0979066714644432,0.10181035846471786
1782942140439342300,0.48934228515625,0.07123779505491257,-0.10686608403921127,0.0973331406712532
1782942140449327000,0.4993271484375,0.07531722635030746,-0.0835288017988205,0.10508453845977783
1782942140459312000,0.50931201171875,0.07324204593896866,-0.04930566996335983,0.11385861784219742
1782942140469297200,0.519297119140625,0.07743439078330994,-0.02484932914376259,0.11452813446521759
1782942140479282200,0.5292822265625,0.08015503734350204,-0.027111442759633064,0.10105722397565842
1782942140489267200,0.53926708984375,0.08066343516111374,-0.0591609850525856,0.06942526251077652
1782942140499252200,0.549252197265625,0.08207671344280243,-0.09410037100315094,0.050893694162368774
1782942140509237200,0.5592373046875,0.09521540999412537,-0.08882145583629608,0.04713277891278267
1782942140519222300,0.56922216796875,0.1039419025182724,-0.049627915024757385,0.06273604184389114
1782942140529207300,0.579207275390625,0.11456391960382462,-0.007779533043503761,0.08636627346277237
1782942140539192300,0.5891923828125,0.12100526690483093,0.030797690153121948,0.09704909473657608
1782942140549177000,0.599177001953125,0.11638495326042175,0.05314933508634567,0.08461825549602509
1782942140559162000,0.609162109375,0.10574670881032944,0.04340953379869461,0.043998513370752335
1782942140569147100,0.619147216796875,0.09870690852403641,0.010249714367091656,-0.0016983984969556332
1782942140579132400,0.62913232421875,0.09283590316772461,-0.021432356908917427,-0.05727560073137283
1782942140589117200,0.6391171875,0.09276080131530762,-0.04563676565885544,-0.09245515614748001
1782942140599102200,0.649102294921875,0.09116746485233307,-0.04569799825549126,-0.1106439083814621
1782942140609087200,0.659087158203125,0.09375046193599701,-0.03337368741631508,-0.10920633375644684
1782942140619072300,0.669072265625,0.09001639485359192,-0.022966746240854263,-0.10881327837705612
1782942140629057300,0.679057373046875,0.07849236577749252,-0.006214398890733719,-0.11620887368917465
1782942140639042000,0.6890419921875,0.06553080677986145,0.024032026529312134,-0.13780666887760162
1782942140649027000,0.699027099609375,0.04928472265601158,0.03948261961340904,-0.15129078924655914
1782942140659012400,0.709012451171875,0.04367232322692871,0.048887915909290314,-0.1614062488079071
1782942140668997400,0.718997314453125,0.035878315567970276,0.04779043048620224,-0.16382120549678802
1782942140678982100,0.728982177734375,0.0318719707429409,0.04139816388487816,-0.18293742835521698
1782942140688967200,0.73896728515625,0.02715178392827511,0.025860749185085297,-0.20403952896595
1782942140698952200,0.7489521484375,0.02065601944923401,0.007894420996308327,-0.23337335884571075
1782942140708937200,0.758937255859375,0.009391380473971367,-0.015659375116229057,-0.2648756206035614
1782942140718922200,0.768922119140625,-0.0002865786664187908,-0.035911109298467636,-0.29167652130126953
1782942140728907000,0.778906982421875,0.004802988842129707,-0.03438085690140724,-0.30030357837677
1782942140738892300,0.788892333984375,0.00899648666381836,-0.004481149837374687,-0.2975365221500397
1782942140748877300,0.798877197265625,0.004560992121696472,0.03718214109539986,-0.28254610300064087
1782942140758862300,0.8088623046875,-0.0012631425634026527,0.0651855543255806,-0.260383665561676
1782942140768847000,0.81884716796875,-0.00043250247836112976,0.07140350341796875,-0.23294697701931
1782942140778832100,0.82883203125,0.008579378947615623,0.05906090512871742,-0.21353591978549957
1782942140788817200,0.838817138671875,0.017125196754932404,0.029401279985904694,-0.19214116036891937
1782942140798802200,0.84880224609375,0.018142789602279663,0.013097676448523998,-0.16265755891799927
1782942140808787200,0.858787109375,0.019494876265525818,0.005917794071137905,-0.1353825330734253
1782942140818772000,0.86877197265625,0.016890523955225945,0.018909625709056854,-0.11461983621120453
1782942140828757200,0.87875732421875,0.016049230471253395,0.0353141650557518,-0.10100656002759933
1782942140838742300,0.8887421875,0.020479466766119003,0.04167193919420242,-0.0962543934583664
1782942140848727300,0.898727294921875,0.017190463840961456,0.03569367527961731,-0.09770260751247406
1782942140858712300,0.90871240234375,0.01542770117521286,0.013717422261834145,-0.10120253264904022
1782942140868697000,0.918697021484375,0.011444411240518093,-0.01748150959610939,-0.10750889778137207
1782942140878682000,0.92868212890625,0.0035087771248072386,-0.046054959297180176,-0.1162564754486084
1782942140888667100,0.938667236328125,0.00010206131264567375,-0.06616475433111191,-0.12433304637670517
1782942140898652200,0.948652099609375,-0.002054334618151188,-0.0650600716471672,-0.12705284357070923
1782942140908637200,0.95863720703125,-0.006945230066776276,-0.05992789566516876,-0.12811145186424255
1782942140918622200,0.968622314453125,-0.01017172634601593,-0.0582914762198925,-0.13032889366149902
1782942140928607200,0.978607177734375,-0.008103249594569206,-0.060352496802806854,-0.13914422690868378
1782942140938592300,0.98859228515625,0.002514314604923129,-0.0658622458577156,-0.15699604153633118
1782942140948577300,0.998577392578125,0.018982503563165665,-0.0712926983833313,-0.17493988573551178
1782942140958562000,1.00856201171875,0.03221793845295906,-0.09380635619163513,-0.18539142608642578
1782942140968547000,1.018547119140625,0.03853202611207962,-0.109843909740448,-0.1775931566953659
1782942140978532000,1.028531982421875,0.037927158176898956,-0.1061258316040039,-0.1541931927204132
1782942140988517400,1.038517333984375,0.023718394339084625,-0.10788272321224213,-0.13005882501602173
1782942140998502100,1.048502197265625,0.004242424853146076,-0.0915147215127945,-0.11198034882545471
1782942141008487200,1.058487060546875,-0.012658261694014072,-0.06747835874557495,-0.09905469417572021
1782942141018472200,1.06847216796875,-0.02212134748697281,-0.05061345547437668,-0.08445213735103607
1782942141028457200,1.078457275390625,-0.022104302421212196,-0.03950488194823265,-0.06930993497371674
1782942141038442200,1.088442138671875,-0.01949251815676689,-0.026141472160816193,-0.0520470030605793
1782942141048427000,1.098427001953125,-0.00746275344863534,-0.002052648924291134,-0.04386524111032486
1782942141058412000,1.108412109375,0.006414413917809725,0.022377844899892807,-0.04371648281812668
1782942141068397300,1.118397216796875,0.020796282216906548,0.038373854011297226,-0.0503821074962616
1782942141078382300,1.12838232421875,0.03186603635549545,0.0388297364115715,-0.06612735241651535
1782942141088367000,1.1383671875,0.043373554944992065,0.026430325582623482,-0.08361952751874924
1782942141098352000,1.14835205078125,0.05337104946374893,0.018127569928765297,-0.09723526239395142
1782942141108337200,1.158337158203125,0.06185374781489372,0.018166983500123024,-0.10637257248163223
1782942141118322200,1.168322265625,0.0682842954993248,0.01306686270982027,-0.11823312938213348
1782942141128307200,1.17830712890625,0.07413339614868164,0.01360508892685175,-0.12553179264068604
1782942141138292000,1.1882919921875,0.07855606079101562,0.008212078362703323,-0.12808488309383392
1782942141148278300,1.1982783203125,0.07204436510801315,0.001055099070072174,-0.12728112936019897
1782942141158262300,1.20826220703125,0.059660669416189194,0.003407469019293785,-0.12327148020267487
1782942141168247300,1.218247314453125,0.051787834614515305,0.014696342870593071,-0.11132374405860901
1782942141178232300,1.228232421875,0.03853192180395126,0.025841470807790756,-0.09785006195306778
1782942141188218000,1.238218017578125,0.023463226854801178,0.04414857551455498,-0.08570551127195358
1782942141198203100,1.248203125,0.012437248602509499,0.0595124289393425,-0.08741475641727448
1782942141208188200,1.258188232421875,0.003646154422312975,0.055640190839767456,-0.09821547567844391
1782942141218173200,1.268173095703125,-0.005154553335160017,0.042077042162418365,-0.10861836373806
1782942141228158200,1.278158203125,-0.01445617526769638,0.018615126609802246,-0.12376588582992554
1782942141238143200,1.288143310546875,-0.028371702879667282,-0.017179450020194054,-0.13471242785453796
1782942141248128300,1.298128173828125,-0.03932714834809303,-0.04196948558092117,-0.13638995587825775
1782942141258113000,1.308113037109375,-0.05156327784061432,-0.06327933818101883,-0.134403795003891
1782942141268098000,1.31809814453125,-0.06399650871753693,-0.07639806717634201,-0.12707450985908508
1782942141278083000,1.3280830078125,-0.07878062129020691,-0.07555145025253296,-0.11555679887533188
1782942141288068400,1.338068359375,-0.09891864657402039,-0.06990209221839905,-0.10137706249952316
1782942141298053400,1.348053466796875,-0.12249080836772919,-0.060771383345127106,-0.08293107897043228
1782942141308038100,1.3580380859375,-0.1470121294260025,-0.031277939677238464,-0.05369676649570465
1782942141318023200,1.368023193359375,-0.1655316948890686,-0.006609183270484209,-0.015126966871321201
1782942141328008200,1.37800830078125,-0.18423986434936523,0.02185254916548729,0.019843533635139465
1782942141337993200,1.3879931640625,-0.19661960005760193,0.05520465970039368,0.05919768288731575
1782942141347978200,1.397978271484375,-0.20910929143428802,0.08827818930149078,0.09044588357210159
1782942141357963000,1.407962890625,-0.20971301198005676,0.11442326009273529,0.11421230435371399
1782942141367948300,1.4179482421875,-0.19569891691207886,0.12556566298007965,0.11746668815612793
1782942141377933300,1.427933349609375,-0.17698225378990173,0.11943265050649643,0.09964869916439056
1782942141387918300,1.43791845703125,-0.15872202813625336,0.09233817458152771,0.08452088385820389
1782942141397903000,1.447903076171875,-0.14902621507644653,0.08233533799648285,0.08718741685152054
1782942141407888100,1.45788818359375,-0.14475344121456146,0.10634373873472214,0.10395414382219315
1782942141417873200,1.467873046875,-0.142826646566391,0.14500008523464203,0.11899428069591522
1782942141427858200,1.477858154296875,-0.13759221136569977,0.17152436077594757,0.12062440067529678
1782942141437843200,1.48784326171875,-0.12918493151664734,0.17380812764167786,0.10800950974225998
1782942141447828200,1.497828125,-0.11261580139398575,0.13823334872722626,0.08740835636854172
1782942141457813200,1.507813232421875,-0.10144300013780594,0.08494094759225845,0.057694047689437866
1782942141467798300,1.51779833984375,-0.08694954216480255,0.04308777302503586,0.032280564308166504
1782942141477783300,1.527783203125,-0.077898770570755,0.02101699635386467,0.0156175522133708
1782942141487768000,1.53776806640625,-0.06763254851102829,0.01375908125191927,0.006578517146408558
1782942141497753000,1.547753173828125,-0.054870422929525375,0.012142753228545189,0.004413239192217588
1782942141507738000,1.557738037109375,-0.04166487231850624,0.008081698790192604,0.027043983340263367
1782942141517723100,1.56772314453125,-0.03434652462601662,0.03826316073536873,0.06730200350284576
1782942141527708400,1.57770849609375,-0.027105387300252914,0.07585661113262177,0.10936982184648514
1782942141537693200,1.587693115234375,-0.03592816740274429,0.1022171676158905,0.1369832158088684
1782942141547678200,1.59767822265625,-0.04462365433573723,0.11051610857248306,0.14262059330940247
1782942141557663200,1.607663330078125,-0.03891273960471153,0.08786618709564209,0.13865584135055542
1782942141567648300,1.617648193359375,-0.03544769808650017,0.0566246397793293,0.12975530326366425
1782942141577633000,1.627633056640625,-0.03424026072025299,0.023920467123389244,0.11851318180561066
1782942141587618000,1.6376181640625,-0.034255173057317734,0.006191803142428398,0.11210588365793228
1782942141597603000,1.64760302734375,-0.03532448038458824,0.01535081397742033,0.11656232178211212
1782942141607588400,1.65758837890625,-0.030396565794944763,0.03320571035146713,0.12808234989643097
1782942141617573400,1.667573486328125,-0.03369860723614693,0.05121681094169617,0.13754156231880188
1782942141627558100,1.67755810546875,-0.043556563556194305,0.0690421462059021,0.1431824117898941
1782942141637543200,1.687543212890625,-0.059345874935388565,0.09585034847259521,0.15384528040885925
1782942141647528200,1.697528076171875,-0.0714038759469986,0.1169377863407135,0.16742447018623352
1782942141657513200,1.70751318359375,-0.07869670540094376,0.12669987976551056,0.17858612537384033
1782942141667498000,1.717498046875,-0.09071288257837296,0.12471076101064682,0.18809866905212402
1782942141677483000,1.72748291015625,-0.09377952665090561,0.12136788666248322,0.18818728625774384
1782942141687468300,1.73746826171875,-0.09399630129337311,0.11347827315330505,0.17809630930423737
1782942141697453300,1.747453369140625,-0.0907113179564476,0.10290132462978363,0.15417948365211487
1782942141707438300,1.757438232421875,-0.0970805361866951,0.08454149216413498,0.1174401044845581
1782942141717423000,1.767423095703125,-0.10374772548675537,0.06384392082691193,0.08262477815151215
1782942141727408000,1.777408203125,-0.12107265740633011,0.04811689257621765,0.05808375030755997
1782942141737393200,1.78739306640625,-0.13175909221172333,0.047475215047597885,0.06289307773113251
1782942141747378200,1.797378173828125,-0.14393587410449982,0.06735917180776596,0.08557282388210297
1782942141757363200,1.80736328125,-0.149998277425766,0.10779517889022827,0.1099025160074234
1782942141767348200,1.81734814453125,-0.1473148763179779,0.14642034471035004,0.12484604120254517
1782942141777333200,1.827333251953125,-0.14152365922927856,0.1571287363767624,0.11361907422542572
1782942141787318300,1.837318359375,-0.13936543464660645,0.1375957727432251,0.07821740955114365
1782942141797303300,1.84730322265625,-0.13603776693344116,0.10405546426773071,0.03378254175186157
1782942141807288000,1.8572880859375,-0.13533015549182892,0.08418242633342743,-0.002235910389572382
1782942141817273000,1.867273193359375,-0.1347046196460724,0.07481905817985535,-0.018754683434963226
1782942141827257600,1.877257568359375,-0.13040387630462646,0.07227840274572372,-0.028144989162683487
1782942141837242600,1.88724267578125,-0.12811432778835297,0.06827515363693237,-0.03322432562708855
1782942141847227600,1.8972275390625,-0.12739500403404236,0.053127363324165344,-0.035619836300611496
1782942141857213400,1.90721337890625,-0.12676039338111877,0.036703478544950485,-0.0440555214881897
1782942141867198700,1.91719873046875,-0.11871232092380524,0.027023155242204666,-0.049333907663822174
1782942141877183700,1.927183837890625,-0.10507084429264069,0.012042591348290443,-0.04563222825527191
1782942141887168800,1.937168701171875,-0.08298072218894958,0.009990360587835312,-0.041625767946243286
1782942141897153500,1.947153564453125,-0.06470312923192978,0.015484323725104332,-0.026917286217212677
1782942141907138600,1.957138671875,-0.0503457672894001,0.01637009158730507,-0.020481759682297707
1782942141917123600,1.96712353515625,-0.024255849421024323,0.015388098545372486,-0.016773369163274765
1782942141927108600,1.977108642578125,0.0033795046620070934,0.004289641045033932,-0.011663028970360756
1782942141937093400,1.98709326171875,0.032451629638671875,-0.014602347277104855,-0.0017111916095018387
1782942141947078700,1.99707861328125,0.062240149825811386,-0.0360458567738533,0.0073126633651554585
1782942141957063700,2.007063720703125,0.08564963936805725,-0.058258168399333954,0.008518055081367493
1782942141967048700,2.017048583984375,0.10458418726921082,-0.08112220466136932,0.008038952015340328
1782942141977033700,2.02703369140625,0.12192188948392868,-0.08972557634115219,0.02203153446316719
1782942141987018500,2.0370185546875,0.14468978345394135,-0.08275607973337173,0.04192241653800011
1782942141997003500,2.04700341796875,0.16220299899578094,-0.07513894140720367,0.07034613937139511
1782942142006988500,2.056988525390625,0.17546235024929047,-0.06678859889507294,0.09919562935829163
1782942142016973600,2.0669736328125,0.1819625198841095,-0.059313781559467316,0.127695232629776
1782942142026958600,2.07695849609375,0.18300700187683105,-0.06371145695447922,0.14454717934131622
1782942142036943600,2.086943603515625,0.1814592033624649,-0.07105830311775208,0.14567460119724274
1782942142046928600,2.0969287109375,0.1834658980369568,-0.08215409517288208,0.13124346733093262
1782942142056913700,2.10691357421875,0.1833803802728653,-0.09441599994897842,0.11734804511070251
1782942142066898700,2.116898681640625,0.1821817010641098,-0.10659889131784439,0.10208733379840851
1782942142076883500,2.126883544921875,0.18389390408992767,-0.1070953905582428,0.10101191699504852
1782942142086868500,2.136868408203125,0.17845359444618225,-0.09470716118812561,0.11450615525245667
1782942142096853500,2.146853515625,0.1755398064851761,-0.08853787928819656,0.11644754558801651
1782942142106838800,2.1568388671875,0.16491085290908813,-0.09112141281366348,0.10882104933261871
1782942142116823600,2.166823486328125,0.15250106155872345,-0.08343768864870071,0.097516268491745
1782942142126808600,2.17680859375,0.14151819050312042,-0.061290040612220764,0.08918163180351257
1782942142136793600,2.186793701171875,0.12854252755641937,-0.032545290887355804,0.07890020310878754
1782942142146778600,2.196778564453125,0.11722701787948608,-0.009899101220071316,0.05976831912994385
1782942142156763600,2.206763671875,0.11246930807828903,-0.001577586866915226,0.039096649736166
1782942142166748400,2.21674853515625,0.10565108060836792,-0.010126866400241852,0.006072388496249914
1782942142176733400,2.2267333984375,0.08887944370508194,-0.037437986582517624,-0.027581311762332916
1782942142186718700,2.23671875,0.06843356043100357,-0.07085959613323212,-0.05773361772298813
1782942142196703700,2.246703857421875,0.05088953301310539,-0.09877920150756836,-0.0675237849354744
1782942142206688800,2.256688720703125,0.036956142634153366,-0.10493350028991699,-0.047349803149700165
1782942142216673500,2.266673583984375,0.02610046975314617,-0.07462221384048462,0.006552696693688631
1782942142226658600,2.276658447265625,0.013908782973885536,-0.020687349140644073,0.06825947016477585
1782942142236643600,2.2866435546875,0.00101941148750484,0.022735491394996643,0.11858658492565155
1782942142246628600,2.296628662109375,-0.019293315708637238,0.03889235854148865,0.1419355869293213
1782942142256613400,2.30661328125,-0.039821211248636246,0.031643643975257874,0.14364366233348846
1782942142266598700,2.3165986328125,-0.060096126049757004,0.00791328027844429,0.13552822172641754
1782942142276583700,2.326583740234375,-0.07907146215438843,0.0012797210365533829,0.13348180055618286
1782942142286568700,2.336568603515625,-0.09221576154232025,0.0034406092017889023,0.12812085449695587
1782942142296553700,2.3465537109375,-0.10539279133081436,-0.012318448163568974,0.10823482275009155
1782942142306538500,2.35653857421875,-0.11334791779518127,-0.0279698446393013,0.08256328105926514
1782942142316523500,2.3665234375,-0.11790910363197327,-0.02926349639892578,0.0630422979593277
1782942142326508500,2.376508544921875,-0.11838820576667786,-0.01460173074156046,0.04597623273730278
1782942142336493600,2.38649365234375,-0.11518117785453796,-0.005672283470630646,0.03563181683421135
1782942142346478600,2.396478515625,-0.12295547872781754,0.0033616917207837105,0.03292284905910492
1782942142356463600,2.406463623046875,-0.13250800967216492,0.014297058805823326,0.025837603956460953
1782942142366448600,2.41644873046875,-0.14072120189666748,0.01660122536122799,0.017724283039569855
1782942142376433700,2.42643359375,-0.14324456453323364,0.020446982234716415,0.016379661858081818
1782942142386418700,2.436418701171875,-0.13517197966575623,0.03487306088209152,0.013932749629020691
1782942142396403500,2.446403564453125,-0.11797701567411423,0.04897301644086838,0.013824883848428726
1782942142406389500,2.456389404296875,-0.11334923654794693,0.05960382521152496,0.010576359927654266
1782942142416374800,2.466374755859375,-0.1145210713148117,0.06516972184181213,-0.0007374552078545094
1782942142426359600,2.476359619140625,-0.12450551986694336,0.06897911429405212,-0.015381379052996635
1782942142436344600,2.486344482421875,-0.1304859220981598,0.07184760272502899,-0.03569331020116806
1782942142446329600,2.49632958984375,-0.13248808681964874,0.08121234178543091,-0.05013776198029518
1782942142456314600,2.506314697265625,-0.13424447178840637,0.07823888212442398,-0.06434843689203262
1782942142466299600,2.516299560546875,-0.13564956188201904,0.06791912764310837,-0.06942575424909592
1782942142476284400,2.526284423828125,-0.12983345985412598,0.05697163566946983,-0.07327429950237274
1782942142486269400,2.53626953125,-0.11581164598464966,0.044515762478113174,-0.07128145545721054
1782942142496254700,2.546254638671875,-0.10357198119163513,0.044892460107803345,-0.055350854992866516
1782942142506239700,2.55623974609375,-0.09145166724920273,0.05944530665874481,-0.027311498299241066
1782942142516224500,2.566224609375,-0.08422335982322693,0.0938633382320404,-0.0058851405046880245
1782942142526209500,2.57620947265625,-0.08239030838012695,0.10868622362613678,0.00668924069032073
1782942142536194600,2.586194580078125,-0.07757817208766937,0.0959789827466011,-0.005356542766094208
1782942142546179600,2.5961796875,-0.06552816927433014,0.0683944970369339,-0.020186355337500572
1782942142556164600,2.60616455078125,-0.04853542521595955,0.025779694318771362,-0.04019789397716522
1782942142566149400,2.6161494140625,-0.03314821049571037,-0.025534624233841896,-0.04393457621335983
1782942142576134700,2.626134765625,-0.016126001253724098,-0.0603182390332222,-0.03617830201983452
1782942142586119700,2.63611962890625,-0.0027132579125463963,-0.07863546162843704,-0.007816169410943985
1782942142596104700,2.646104736328125,0.009363873861730099,-0.08534028381109238,0.018187956884503365
1782942142606089500,2.65608935546875,0.025085579603910446,-0.07582587003707886,0.04596472531557083
1782942142616074500,2.666074462890625,0.036959804594516754,-0.055679433047771454,0.07653595507144928
1782942142626059500,2.6760595703125,0.04746384173631668,-0.03575526177883148,0.10787071287631989
1782942142636044500,2.68604443359375,0.05018957704305649,-0.02110103704035282,0.12629812955856323
1782942142646029800,2.69602978515625,0.04996773600578308,-0.015825847163796425,0.13092297315597534
1782942142656014600,2.7060146484375,0.052034929394721985,-0.022372834384441376,0.13729068636894226
1782942142665999600,2.71599951171875,0.059737056493759155,-0.027801156044006348,0.1348792016506195
1782942142675984600,2.725984619140625,0.0671294778585434,-0.03806859254837036,0.1313726156949997
1782942142685969700,2.7359697265625,0.07091515511274338,-0.0552731454372406,0.1189068853855133
1782942142695954700,2.74595458984375,0.0743793249130249,-0.06990357488393784,0.10011260211467743
1782942142705939500,2.755939453125,0.07048844546079636,-0.08254027366638184,0.08144251257181168
1782942142715924500,2.765924560546875,0.06366331875324249,-0.07428669929504395,0.07582176476716995
1782942142725909800,2.77590966796875,0.05387566611170769,-0.042050205171108246,0.08737402409315109
1782942142735894800,2.785894775390625,0.03339808061718941,-0.007138642482459545,0.10934664309024811
1782942142745879600,2.795879638671875,0.009680764749646187,0.014626574702560902,0.12507420778274536
1782942142755864600,2.805864501953125,0.00008966540917754173,0.041838303208351135,0.12580956518650055
1782942142765849600,2.815849609375,-0.011226639151573181,0.0667327344417572,0.1193239688873291
1782942142775834600,2.825834716796875,-0.022372685372829437,0.07761882245540619,0.09880372881889343
1782942142785819600,2.835819580078125,-0.04002944380044937,0.07088235765695572,0.061095237731933594
1782942142795804400,2.845804443359375,-0.05735522881150246,0.0618891716003418,0.018098870292305946
1782942142805789700,2.855789794921875,-0.06596815586090088,0.05690933018922806,-0.02779458835721016
1782942142815774700,2.865774658203125,-0.06133001670241356,0.06324799358844757,-0.05700419098138809
1782942142825760300,2.87576025390625,-0.051985520869493484,0.07862508296966553,-0.08149515092372894
1782942142835745300,2.885745361328125,-0.042590148746967316,0.07633931189775467,-0.09015315771102905
1782942142845730300,2.895730224609375,-0.029712699353694916,0.07884002476930618,-0.08829187601804733
1782942142855715300,2.90571533203125,-0.01636219024658203,0.08401978760957718,-0.0711473599076271
1782942142865701400,2.915701416015625,-0.007267761044204235,0.0976242795586586,-0.047184769064188004
1782942142875686400,2.925686279296875,-0.0008666524663567543,0.10397350788116455,-0.023375336080789566
1782942142885671400,2.93567138671875,0.0036154473200440407,0.10603799670934677,0.004066407680511475
1782942142895656400,2.945656494140625,-0.00042217783629894257,0.10825874656438828,0.03267954662442207
1782942142905641200,2.95564111328125,-0.0055397083051502705,0.11336881667375565,0.06541352719068527
1782942142915626200,2.965626220703125,-0.007954860106110573,0.09978966414928436,0.08262016624212265
1782942142925611300,2.975611328125,-0.002748646307736635,0.06881257891654968,0.08616829663515091
1782942142935596300,2.98559619140625,0.006569203455001116,0.02467240020632744,0.08201996982097626
1782942142945581300,2.995581298828125,0.025624120607972145,-0.017900094389915466,0.08281811326742172
1782942142955566300,3.00556640625,0.04090079292654991,-0.03512156754732132,0.09673640877008438
1782942142965551400,3.01555126953125,0.0568280927836895,-0.03415244445204735,0.12029046565294266
1782942142975536400,3.025536376953125,0.06386128067970276,-0.02553408220410347,0.1391543447971344
1782942142985521400,3.035521484375,0.07000705599784851,-0.03052910417318344,0.14354456961154938
1782942142995506200,3.045506103515625,0.07501719146966934,-0.038868650794029236,0.13056695461273193
1782942143005491200,3.0554912109375,0.08268682658672333,-0.0627332404255867,0.10973305255174637
1782942143015476200,3.065476318359375,0.0839768722653389,-0.09401331096887589,0.08635429292917252
1782942143025461500,3.07546142578125,0.08431029319763184,-0.12567244470119476,0.07305525988340378
1782942143035446500,3.085446533203125,0.08526716381311417,-0.14549948275089264,0.0789455771446228
1782942143045431300,3.095431396484375,0.07951527088880539,-0.14685609936714172,0.0988822653889656
1782942143055416300,3.105416259765625,0.0685020312666893,-0.1366114616394043,0.12598365545272827
1782942143065401300,3.1154013671875,0.06430622190237045,-0.11674614250659943,0.14915503561496735
1782942143075386400,3.125386474609375,0.05518116056919098,-0.09746192395687103,0.1512773036956787
1782942143085371100,3.13537109375,0.04238733649253845,-0.09328209608793259,0.13321921229362488
1782942143095356200,3.145356201171875,0.0346551313996315,-0.11455637216567993,0.10598038882017136
1782942143105341400,3.155341552734375,0.021641327068209648,-0.1507420837879181,0.08628391474485397
1782942143115326500,3.165326416015625,0.00999930128455162,-0.1836216002702713,0.08151319622993469
1782942143125311500,3.1753115234375,-0.0017809253185987473,-0.20728591084480286,0.09028591960668564
1782942143135296300,3.185296142578125,-0.023006577044725418,-0.23471692204475403,0.10380525141954422
1782942143145281300,3.19528125,-0.0407584086060524,-0.2572169005870819,0.10782583057880402
1782942143155266300,3.205266357421875,-0.051250260323286057,-0.28173214197158813,0.11496473103761673
1782942143165251300,3.215251220703125,-0.050520289689302444,-0.2779291272163391,0.1396266669034958
1782942143175236400,3.225236328125,-0.04804455116391182,-0.21477198600769043,0.1872684508562088
1782942143185221400,3.235221435546875,-0.05437462031841278,-0.11124718934297562,0.23737050592899323
1782942143195206400,3.245206298828125,-0.07273128628730774,0.014487527310848236,0.26854968070983887
1782942143205191400,3.25519140625,-0.09508213400840759,0.11361171305179596,0.27083972096443176
1782942143215176400,3.265176513671875,-0.11469733715057373,0.1729728728532791,0.23892192542552948
1782942143225161200,3.2751611328125,-0.12675373256206512,0.18910177052021027,0.1788732409477234
1782942143235146200,3.285146240234375,-0.1342809498310089,0.16590516269207,0.09819234162569046
1782942143245131300,3.29513134765625,-0.12940603494644165,0.12917058169841766,0.004284482449293137
1782942143255116300,3.3051162109375,-0.12294062972068787,0.09342946112155914,-0.08877445012331009
1782942143265101300,3.315101318359375,-0.11654691398143768,0.0816819965839386,-0.14864389598369598
1782942143275087400,3.32508740234375,-0.11188770085573196,0.09724434465169907,-0.1674307882785797
1782942143285072400,3.335072265625,-0.11864174157381058,0.1636044681072235,-0.14127801358699799
1782942143295057400,3.345057373046875,-0.11307281255722046,0.2606198489665985,-0.07317884266376495
1782942143305042200,3.355042236328125,-0.10060016810894012,0.33073315024375916,0.008179659955203533
1782942143315027200,3.365027099609375,-0.063870370388031,0.36799120903015137,0.06597250699996948
1782942143325012500,3.375012451171875,-0.023538654670119286,0.36500686407089233,0.09313008934259415
1782942143334997500,3.38499755859375,0.02117284946143627,0.327090322971344,0.09375782310962677
1782942143344982300,3.394982177734375,0.07060032337903976,0.27367767691612244,0.07868033647537231
1782942143354967300,3.40496728515625,0.12130740284919739,0.21243640780448914,0.05254456028342247
1782942143364952300,3.414952392578125,0.15846756100654602,0.1429142951965332,0.022262554615736008
1782942143374937300,3.424937255859375,0.17783942818641663,0.07024040818214417,-0.00023205578327178955
1782942143384922400,3.43492236328125,0.18465152382850647,0.02057299204170704,-0.006536557339131832
1782942143394907100,3.4449072265625,0.18712322413921356,-0.00496575515717268,0.0009321337565779686
1782942143404892400,3.454892333984375,0.19304528832435608,-0.006849142722785473,0.025356251746416092
1782942143414877400,3.46487744140625,0.19350436329841614,0.00002287793904542923,0.05578017234802246
1782942143424862500,3.474862548828125,0.193663090467453,0.010499486699700356,0.08361180126667023
1782942143434847200,3.48484716796875,0.1984483301639557,0.011212795041501522,0.09455075860023499
1782942143444832300,3.494832275390625,0.20084384083747864,0.008286512456834316,0.09522773325443268
1782942143454817300,3.5048173828125,0.2047257125377655,-0.002361851744353771,0.08287584036588669
1782942143464802300,3.51480224609375,0.19779935479164124,-0.026942294090986252,0.07000797986984253
1782942143474787300,3.524787353515625,0.18308454751968384,-0.041874390095472336,0.05925588309764862
1782942143484772400,3.5347724609375,0.161723330616951,-0.02331029623746872,0.06413612514734268
1782942143494757400,3.54475732421875,0.13918207585811615,0.0158829428255558,0.07275458425283432
1782942143504742400,3.554742431640625,0.11826615035533905,0.04955781251192093,0.07352077215909958
1782942143514727400,3.5647275390625,0.10197024047374725,0.07936238497495651,0.06172531470656395
1782942143524712400,3.57471240234375,0.09299938380718231,0.08108518272638321,0.0349605455994606
1782942143534697200,3.584697265625,0.0877673551440239,0.06715459376573563,-0.007280196528881788
1782942143544682200,3.59468212890625,0.08050757646560669,0.04396059364080429,-0.057584647089242935
1782942143554667300,3.604667236328125,0.07733327895402908,0.01563933491706848,-0.11488118022680283
1782942143564652500,3.614652587890625,0.07394014298915863,-0.008796767331659794,-0.16570787131786346
1782942143574637300,3.62463720703125,0.07317905873060226,-0.02370871976017952,-0.20100536942481995
1782942143584622300,3.634622314453125,0.06488890200853348,-0.02684592455625534,-0.21047529578208923
1782942143594607400,3.644607421875,0.05560804903507233,-0.01560717448592186,-0.1990097165107727
1782942143604592400,3.65459228515625,0.03956276923418045,-0.009174841456115246,-0.17099620401859283
1782942143614577400,3.664577392578125,0.022865552455186844,0.01718941703438759,-0.13594214618206024
1782942143624562200,3.674562255859375,0.017391158267855644,0.05858692154288292,-0.09139145910739899
1782942143634547200,3.684547119140625,0.015954386442899704,0.08475516736507416,-0.04778093099594116
1782942143644532500,3.694532470703125,0.024508992210030556,0.09877245128154755,-0.03056199662387371
1782942143654517500,3.704517578125,0.03477096930146217,0.09363405406475067,-0.025943689048290253
1782942143664502300,3.714502197265625,0.04587129130959511,0.08310551196336746,-0.03675053268671036
1782942143674488300,3.72448828125,0.05082313343882561,0.06857973337173462,-0.0487530380487442
1782942143684473300,3.734473388671875,0.04903535172343254,0.05303220450878143,-0.06333384662866592
1782942143694458400,3.744458251953125,0.03690306842327118,0.02614772692322731,-0.08096963912248611
1782942143704443400,3.754443359375,0.028329022228717804,-0.014255087822675705,-0.09434616565704346
1782942143714428400,3.764428466796875,0.01709716022014618,-0.05825300142168999,-0.09601611644029617
1782942143724413400,3.774413330078125,0.005840511992573738,-0.08243849873542786,-0.0821455717086792
1782942143734398500,3.7843984375,-0.01049589179456234,-0.07270900905132294,-0.05334259569644928
1782942143744383200,3.79438330078125,-0.02740350179374218,-0.029049674049019814,-0.005903973244130611
1782942143754368300,3.8043681640625,-0.04524264857172966,0.029023315757513046,0.0400056354701519
1782942143764353300,3.814353271484375,-0.0618881992995739,0.08072645217180252,0.07355746626853943
1782942143774338300,3.82433837890625,-0.07495684921741486,0.11893869936466217,0.08209815621376038
1782942143784323300,3.8343232421875,-0.08836080133914948,0.12236379086971283,0.07269106805324554
1782942143794308400,3.844308349609375,-0.10231658071279526,0.107038214802742,0.0332486629486084
1782942143804293400,3.85429345703125,-0.11523398011922836,0.06510994583368301,-0.008109694346785545
1782942143814278400,3.8642783203125,-0.12050412595272064,0.019763125106692314,-0.04165513068437576
1782942143824263000,3.874262939453125,-0.12415479123592377,-0.014069940894842148,-0.06683185696601868
1782942143834248000,3.884248046875,-0.1277700513601303,-0.028151895850896835,-0.08241558820009232
1782942143844232700,3.894232666015625,-0.12979485094547272,-0.038121968507766724,-0.09010147303342819
1782942143854217700,3.9042177734375,-0.13662342727184296,-0.033736977726221085,-0.08722162246704102
1782942143864202800,3.91420263671875,-0.1384575366973877,-0.01601976528763771,-0.07366347312927246
1782942143874187800,3.924187744140625,-0.13629268109798431,0.0077132172882556915,-0.05272601172327995
1782942143884172800,3.9341728515625,-0.13104891777038574,0.030049683526158333,-0.04230080172419548
1782942143894157800,3.94415771484375,-0.12374255806207657,0.043250564485788345,-0.047264326363801956
1782942143904142800,3.954142822265625,-0.11848601698875427,0.0318964459002018,-0.06074737384915352
1782942143914128000,3.9641279296875,-0.10255919396877289,0.006905790418386459,-0.07990485429763794
1782942143924113000,3.97411279296875,-0.08799703419208527,-0.02980881556868553,-0.09059850871562958
1782942143934097700,3.98409765625,-0.07416380941867828,-0.0452088825404644,-0.09433197230100632
1782942143944082700,3.994082763671875,-0.06378600746393204,-0.042098306119441986,-0.07719932496547699
1782942143954066700,4.004066650390625,-0.05783911049365997,-0.012070157565176487,-0.04983065277338028
1782942143964051700,4.0140517578125,-0.05146030709147453,0.022813256829977036,-0.009129296988248825
1782942143974036700,4.02403662109375,-0.050163570791482925,0.06391339749097824,0.034252703189849854
1782942143984022000,4.03402197265625,-0.04596775770187378,0.08864191174507141,0.06155223771929741
1782942143994006800,4.0440068359375,-0.04352946579456329,0.0903652235865593,0.07236745953559875
1782942144003991800,4.05399169921875,-0.04229322448372841,0.06862370669841766,0.06301043927669525
1782942144013976800,4.063976806640625,-0.0379893034696579,0.026777639985084534,0.03375209495425224
1782942144023961900,4.0739619140625,-0.029595283791422844,-0.019067082554101944,0.0004213009960949421
1782942144033947000,4.08394677734375,-0.019648095592856407,-0.054214272648096085,-0.028705235570669174
1782942144043931600,4.093931640625,-0.006685158703476191,-0.07001107931137085,-0.039113935083150864
1782942144053916700,4.103916748046875,-0.0034273359924554825,-0.07458952069282532,-0.03020038828253746
1782942144063902000,4.11390185546875,-0.000835813581943512,-0.06312141567468643,-0.008547289296984673
1782942144073887000,4.123886962890625,0.006438327021896839,-0.03783619776368141,0.023935163393616676
1782942144083871700,4.133871826171875,0.00899496115744114,-0.010979549027979374,0.05493142828345299
1782942144093856800,4.143856689453125,0.00942431204020977,-0.0004175398498773575,0.06926879286766052
1782942144103842800,4.1538427734375,0.011782540008425713,0.0023667942732572556,0.05792372673749924
1782942144113827600,4.16382763671875,0.012336187064647675,-0.0014065951108932495,0.037982258945703506
1782942144123812900,4.173812744140625,0.011549755930900574,-0.018843375146389008,0.014242308214306831
1782942144133798000,4.1837978515625,0.01355193555355072,-0.05173593759536743,-0.017168421298265457
1782942144143783000,4.193782958984375,0.018515801057219505,-0.07495897263288498,-0.04460164159536362
1782942144153768000,4.203767822265625,0.022893449291586876,-0.08618524670600891,-0.06606169044971466
1782942144163752700,4.213752685546875,0.0169530026614666,-0.08303393423557281,-0.07486263662576675
1782942144173737700,4.22373779296875,0.01259452011436224,-0.04944996535778046,-0.07432843744754791
1782942144183722800,4.23372265625,0.00916783045977354,-0.007857780903577805,-0.059248559176921844
1782942144193707800,4.243707763671875,0.004880978260189295,0.03832097351551056,-0.05574173107743263
1782942144203692800,4.25369287109375,-0.008192479610443115,0.05929762125015259,-0.06444200873374939
1782942144213677800,4.263677734375,-0.015883345156908035,0.046519339084625244,-0.09035448729991913
1782942144223662800,4.273662841796875,-0.026942122727632523,0.022997770458459854,-0.12194196879863739
1782942144233647900,4.28364794921875,-0.03212074190378189,-0.011442551389336586,-0.14910787343978882
1782942144243633000,4.2936328125,-0.03694559261202812,-0.04052480310201645,-0.17245474457740784
1782942144253617700,4.30361767578125,-0.0292575154453516,-0.07453179359436035,-0.18538828194141388
1782942144263602700,4.313602783203125,-0.018352137878537178,-0.08974643796682358,-0.1834857165813446
1782942144273587700,4.323587646484375,-0.005243862513452768,-0.0846201702952385,-0.15666785836219788
1782942144283573000,4.333572998046875,0.0009439922869205475,-0.05367051810026169,-0.107112817466259
1782942144293557800,4.343557861328125,0.014460375532507896,-0.001459674909710884,-0.04625622183084488
1782942144303542800,4.353542724609375,0.018727557733654976,0.05632878839969635,0.008588120341300964
1782942144313527800,4.36352783203125,0.02189996838569641,0.09813631325960159,0.04320259392261505
1782942144323512800,4.373512939453125,0.019283145666122437,0.11389769613742828,0.047924645245075226
1782942144333497900,4.383497802734375,0.019252149388194084,0.10046304762363434,0.02885667234659195
1782942144343483600,4.393483642578125,0.016931472346186638,0.05381697788834572,-0.016568869352340698
1782942144353469000,4.403468994140625,0.014008671045303345,-0.019129764288663864,-0.07536255568265915
1782942144363454000,4.413453857421875,0.010804621502757072,-0.08745316416025162,-0.12251648306846619
1782942144373438700,4.423438720703125,0.0019667113665491343,-0.13235065340995789,-0.1514909714460373
1782942144383423700,4.433423828125,-0.007861951366066933,-0.14015263319015503,-0.15864209830760956
1782942144393408800,4.44340869140625,-0.018425386399030685,-0.11788228154182434,-0.13982725143432617
1782942144403393800,4.453393798828125,-0.033228568732738495,-0.07910186052322388,-0.09989981353282928
1782942144413378800,4.46337890625,-0.04420696943998337,-0.031740687787532806,-0.051457349210977554
1782942144423363600,4.473363525390625,-0.052005503326654434,-0.00043096765875816345,-0.005615560337901115
1782942144433350000,4.483349853515625,-0.05685964599251747,0.01498133409768343,0.02229183539748192
1782942144443335000,4.4933349609375,-0.05208779126405716,-0.0004508858546614647,0.018788978457450867
1782942144453319700,4.503319580078125,-0.04636574536561966,-0.03643467649817467,-0.002092585898935795
1782942144463304700,4.5133046875,-0.04054833948612213,-0.08739958703517914,-0.03464386984705925
1782942144473289700,4.523289794921875,-0.041969362646341324,-0.1314743012189865,-0.05877372995018959
1782942144483274800,4.533274658203125,-0.03996559977531433,-0.16234833002090454,-0.07276598364114761
1782942144493260000,4.543260009765625,-0.03730856999754906,-0.187707781791687,-0.07948426902294159
1782942144503244800,4.553244873046875,-0.03635702282190323,-0.2022550255060196,-0.07190890610218048
1782942144513229800,4.563229736328125,-0.035607654601335526,-0.20906783640384674,-0.06404110044240952
1782942144523214800,4.57321484375,-0.036440160125494,-0.2161310762166977,-0.05294370651245117
1782942144533200000,4.583199951171875,-0.03247199207544327,-0.22386406362056732,-0.054865747690200806
1782942144543184600,4.5931845703125,-0.03237505257129669,-0.22939252853393555,-0.06616207957267761
1782942144553169700,4.603169677734375,-0.032120510935783386,-0.2455722987651825,-0.08854225277900696
1782942144563154700,4.61315478515625,-0.024218646809458733,-0.2821308374404907,-0.12216892093420029
1782942144573140000,4.623139892578125,-0.013980892486870289,-0.32073840498924255,-0.14783528447151184
1782942144583125000,4.633125,0.002858542138710618,-0.32376617193222046,-0.15919765830039978
1782942144593109800,4.64310986328125,0.01074046827852726,-0.29102572798728943,-0.15388168394565582
1782942144603094800,4.6530947265625,0.007755064871162176,-0.21823596954345703,-0.13599881529808044
1782942144613079800,4.663079833984375,-0.011897442862391472,-0.12041652202606201,-0.09999043494462967
1782942144623064800,4.67306494140625,-0.03330419957637787,-0.03549470752477646,-0.06538958102464676
1782942144633049600,4.683049560546875,-0.04434441402554512,0.02039845660328865,-0.026021748781204224
1782942144643034600,4.69303466796875,-0.0472741574048996,0.03933672979474068,-0.00644991360604763
1782942144653020000,4.70302001953125,-0.03691389784216881,0.04219884052872658,0.015044040977954865
1782942144663005000,4.7130048828125,-0.025047117844223976,0.04740319028496742,0.029197676107287407
1782942144672990000,4.722989990234375,-0.01782863400876522,0.06015615910291672,0.04168365150690079
1782942144682974700,4.732974609375,-0.021220168098807335,0.0772390067577362,0.05224601551890373
1782942144692959700,4.742959716796875,-0.029315100982785225,0.0857444554567337,0.044478897005319595
1782942144702944800,4.75294482421875,-0.035451292991638184,0.06356991082429886,0.028714314103126526
1782942144712929800,4.7629296875,-0.04351372644305229,0.02342076599597931,0.00019444525241851807
1782942144722914800,4.772914794921875,-0.049480538815259933,-0.02554437890648842,-0.02295934408903122
1782942144732899800,4.78289990234375,-0.05250244215130806,-0.053122058510780334,-0.03884722292423248
1782942144742884900,4.792884765625,-0.05394720658659935,-0.05185066536068916,-0.03382476791739464
1782942144752870000,4.802869873046875,-0.05525404214859009,-0.027624912559986115,-0.01131651271134615
1782942144762855000,4.81285498046875,-0.05634673684835434,0.0025849230587482452,0.024417784065008163
1782942144772839700,4.822839599609375,-0.05663296580314636,0.03391784057021141,0.05728781223297119
1782942144782824700,4.83282470703125,-0.05218388885259628,0.051686979830265045,0.08119900524616241
1782942144792809700,4.842809814453125,-0.04576679691672325,0.06480517983436584,0.08872027695178986
1782942144802795800,4.852795654296875,-0.03254074230790138,0.06321313977241516,0.08235052227973938
1782942144812780800,4.86278076171875,-0.02093331888318062,0.04561794921755791,0.04961339384317398
1782942144822765800,4.872765869140625,-0.003944747615605593,0.018297377973794937,0.010674783028662205
1782942144832751000,4.882751220703125,0.011627496220171452,0.006571481004357338,-0.025415074080228806
1782942144842736000,4.892736083984375,0.023531027138233185,0.012865861877799034,-0.04612647742033005
1782942144852721000,4.902720947265625,0.029246244579553604,0.03533615916967392,-0.060016240924596786
1782942144862706000,4.912705810546875,0.028714679181575775,0.038371097296476364,-0.07042307406663895
1782942144872691000,4.92269091796875,0.022313479334115982,0.03043065220117569,-0.09027745574712753
1782942144882676000,4.932676025390625,0.022496970370411873,0.0153875220566988,-0.09607356041669846
1782942144892660700,4.94266064453125,0.026811808347702026,0.011965220794081688,-0.0966109111905098
1782942144902645800,4.952645751953125,0.02442481741309166,0.014297883957624435,-0.08808932453393936
1782942144912631000,4.962631103515625,0.02148255705833435,0.029167378321290016,-0.07741058617830276
1782942144922616000,4.972615966796875,0.0203323382884264,0.05616357922554016,-0.06398345530033112
1782942144932601000,4.98260107421875,0.018771449103951454,0.08025817573070526,-0.057947199791669846
1782942144942585900,4.9925859375,0.0163386519998312,0.09683182835578918,-0.056748781353235245
1782942144952571000,5.00257080078125,0.014426546171307564,0.10290022939443588,-0.060867246240377426
1782942144962556000,5.012555908203125,0.013677665963768959,0.08389777690172195,-0.07378251850605011
1782942144972541000,5.022541015625,0.01101498119533062,0.054122600704431534,-0.08396255224943161
1782942144982526000,5.03252587890625,0.014122091233730316,0.02075611799955368,-0.09507938474416733
1782942144992511000,5.042510986328125,0.009558823890984058,-0.0014197565615177155,-0.10422757267951965
1782942145002496000,5.05249609375,0.004515595734119415,-0.018336154520511627,-0.10497405380010605
1782942145012481000,5.06248095703125,0.005084960255771875,-0.022966763004660606,-0.11044511198997498
1782942145022466000,5.072466064453125,0.013058464974164963,-0.005864475388079882,-0.08971027284860611
1782942145032450800,5.082450927734375,0.032561853528022766,0.026201020926237106,-0.057331763207912445
1782942145042435800,5.092435791015625,0.04666382446885109,0.07782560586929321,-0.016598442569375038
1782942145052420900,5.1024208984375,0.06187872961163521,0.11954747140407562,0.024526888504624367
1782942145062406000,5.112406005859375,0.06663700193166733,0.14308741688728333,0.05054597184062004
1782942145072391000,5.122390869140625,0.06534478813409805,0.13520032167434692,0.04519990459084511
1782942145082376000,5.1323759765625,0.05702986940741539,0.1064714714884758,0.021227460354566574
1782942145092361000,5.14236083984375,0.058640848845243454,0.055087681859731674,-0.009872091002762318
1782942145102346000,5.152345947265625,0.06859361380338669,-0.00752323167398572,-0.039556749165058136
1782942145112331000,5.1623310546875,0.08618726581335068,-0.051862943917512894,-0.05382663384079933
1782942145122315800,5.172315673828125,0.1005675345659256,-0.05846944823861122,-0.04100830852985382
1782942145132300800,5.18230078125,0.10327865928411484,-0.029251091182231903,-0.010366128757596016
1782942145142285800,5.192285888671875,0.10450717806816101,0.023972980678081512,0.031283844262361526
1782942145152271000,5.20227099609375,0.09726602584123611,0.08089551329612732,0.07392778247594833
1782942145162256100,5.212256103515625,0.09053781628608704,0.12309356033802032,0.10463323444128036
1782942145172241000,5.222240966796875,0.08661633729934692,0.12709465622901917,0.11015182733535767
1782942145182227000,5.23222705078125,0.08054672181606293,0.10752362012863159,0.0988331213593483
1782942145192212000,5.2422119140625,0.07985052466392517,0.059549517929553986,0.07105877995491028
1782942145202196700,5.25219677734375,0.07439929991960526,0.01221955195069313,0.03495590388774872
1782942145212181800,5.262181640625,0.06691715121269226,-0.032040588557720184,0.0010397485457360744
1782942145222167000,5.2721669921875,0.0591292679309845,-0.06017795205116272,-0.020246364176273346
1782942145232152000,5.282152099609375,0.045943733304739,-0.07175647467374802,-0.016618432477116585
1782942145242136800,5.29213671875,0.031304605305194855,-0.062237538397312164,0.005590999033302069
1782942145252121900,5.302121826171875,0.014079729095101357,-0.018620746210217476,0.036492105573415756
1782942145262107000,5.31210693359375,-0.004490226972848177,0.03559056296944618,0.06273729354143143
1782942145272092000,5.322091796875,-0.017014730721712112,0.06481998413801193,0.07733343541622162
1782942145282077000,5.332076904296875,-0.028935037553310394,0.059232406318187714,0.06682752817869186
1782942145292062000,5.34206201171875,-0.03408860042691231,0.028269533067941666,0.04386453330516815
1782942145302047000,5.352046875,-0.04007219150662422,-0.016571443527936935,0.007983764633536339
1782942145312032000,5.362031982421875,-0.042760372161865234,-0.07088088244199753,-0.029640117660164833
1782942145322017000,5.37201708984375,-0.044691696763038635,-0.11016277223825455,-0.06282896548509598
1782942145332002000,5.382001953125,-0.046512775123119354,-0.14224384725093842,-0.08436700701713562
1782942145341986800,5.39198681640625,-0.04816233739256859,-0.14877445995807648,-0.08360481262207031
1782942145351971800,5.401971923828125,-0.055292628705501556,-0.12621165812015533,-0.06263631582260132
1782942145361956900,5.411956787109375,-0.054623376578092575,-0.08355208486318588,-0.02196344919502735
1782942145371942100,5.421942138671875,-0.051429472863674164,-0.035418860614299774,0.02399393729865551
1782942145381927000,5.431927001953125,-0.04943769425153732,-0.0011210767552256584,0.06380899250507355
1782942145391912000,5.441911865234375,-0.037099242210388184,0.020915769040584564,0.09428772330284119
1782942145401897000,5.45189697265625,-0.029808569699525833,0.033611588180065155,0.100110724568367
1782942145411882000,5.461882080078125,-0.015221694484353065,0.02198266051709652,0.09742802381515503
1782942145421867000,5.471866943359375,-0.012379303574562073,-0.004049471579492092,0.08119472116231918
1782942145431851800,5.481851806640625,-0.011333180591464043,-0.03260970488190651,0.06384427845478058
1782942145441836800,5.4918369140625,-0.017950601875782013,-0.03810220956802368,0.050064817070961
1782942145451822000,5.501822021484375,-0.02096686139702797,-0.035717010498046875,0.04158715158700943
1782942145461807000,5.51180712890625,-0.019252052530646324,-0.03504189848899841,0.03270311281085014
1782942145471791900,5.5217919921875,-0.015209159813821316,-0.032088130712509155,0.027359312400221825
1782942145481777000,5.53177685546875,-0.01216250378638506,-0.03615770488977432,0.02113470621407032
1782942145491762000,5.541761962890625,-0.00873604230582714,-0.0419236496090889,0.022869465872645378
1782942145501747000,5.551746826171875,-0.0046646022237837315,-0.04988064244389534,0.030558012425899506
1782942145511732000,5.56173193359375,-0.008061988279223442,-0.04778438061475754,0.043885063380002975
1782942145521716700,5.571716796875,-0.0070310779847204685,-0.04597635939717293,0.0549081526696682
1782942145531703000,5.581703125,-0.0060814362950623035,-0.03607482463121414,0.056869130581617355
1782942145541688000,5.59168798828125,-0.0016627190634608269,-0.04008341580629349,0.05208555981516838
1782942145551672800,5.6016728515625,0.012154091149568558,-0.04687684401869774,0.035279642790555954
1782942145561657900,5.611657958984375,0.022000329568982124,-0.0484667532145977,0.01522284559905529
1782942145571643000,5.621642822265625,0.027269601821899414,-0.03754670172929764,0.006272928323596716
1782942145581628000,5.6316279296875,0.030584705993533134,-0.0155271515250206,-0.0005279858596622944
1782942145591613000,5.641613037109375,0.02384406328201294,0.021525610238313675,-0.001995838712900877
1782942145601598000,5.651597900390625,0.020500466227531433,0.04677317664027214,-0.00553198391571641
1782942145611583000,5.6615830078125,0.019429806619882584,0.058442045003175735,-0.013281742110848427
1782942145621568000,5.671568115234375,0.016547735780477524,0.05390987917780876,-0.03591621667146683
1782942145631553000,5.681552978515625,0.011720996350049973,0.033043790608644485,-0.0638333186507225
1782942145641537800,5.691537841796875,0.01646674983203411,0.00023950450122356415,-0.09805147349834442
1782942145651522800,5.701522705078125,0.01589258201420307,-0.031070131808519363,-0.12891985476016998
1782942145661507800,5.7115078125,0.006147010251879692,-0.045519642531871796,-0.14364367723464966
1782942145671492900,5.721492919921875,-0.010822107084095478,-0.03805149719119072,-0.1454162746667862
1782942145681478100,5.73147802734375,-0.031644564121961594,-0.004850400611758232,-0.1312655657529831
1782942145691463000,5.741462890625,-0.05745377391576767,0.03521566838026047,-0.11419425159692764
1782942145701448000,5.751447998046875,-0.08178601413965225,0.067435123026371,-0.09530472010374069
1782942145711433000,5.761432861328125,-0.09925797581672668,0.06815173476934433,-0.08611232787370682
1782942145721418000,5.77141796875,-0.10814841091632843,0.05898460000753403,-0.08357619494199753
1782942145731402800,5.78140283203125,-0.11069197207689285,0.03795411437749863,-0.08065392822027206
1782942145741387800,5.7913876953125,-0.1043429970741272,0.021223070099949837,-0.0812307670712471
1782942145751372800,5.801372802734375,-0.09797995537519455,0.018105395138263702,-0.07538430392742157
1782942145761358000,5.811358154296875,-0.09609843790531158,0.036224476993083954,-0.06741958856582642
1782942145771343000,5.821343017578125,-0.09532024711370468,0.05292284116148949,-0.06125910207629204
1782942145781328000,5.831327880859375,-0.09180300682783127,0.056121569126844406,-0.057563427835702896
1782942145791313000,5.84131298828125,-0.08686939626932144,0.04612472653388977,-0.06696692109107971
1782942145801298000,5.8512978515625,-0.07869535684585571,0.034046757966279984,-0.07634630799293518
1782942145811283000,5.861282958984375,-0.0660369023680687,0.02955169975757599,-0.08467202633619308
1782942145821268000,5.87126806640625,-0.053163979202508926,0.02028389647603035,-0.09648767858743668
1782942145831253000,5.8812529296875,-0.03882870450615883,0.0011798236519098282,-0.10422550141811371
1782942145841238000,5.891238037109375,-0.0263198371976614,-0.01939282938838005,-0.10521060228347778
1782942145851223000,5.90122314453125,-0.013194183818995953,-0.03624613955616951,-0.09705246984958649
1782942145861208300,5.911208251953125,-0.0009388499893248081,-0.04448409751057625,-0.07797012478113174
1782942145871193000,5.921193115234375,0.007774204947054386,-0.039562124758958817,-0.058566659688949585
1782942145881178000,5.93117822265625,0.018046550452709198,-0.020431041717529297,-0.0349460169672966
1782942145891163100,5.9411630859375,0.025940963998436928,0.012290474958717823,-0.00527454586699605
1782942145901149000,5.95114892578125,0.03285213187336922,0.05695222318172455,0.027204567566514015
1782942145911134000,5.961134033203125,0.03536965325474739,0.09191261976957321,0.04556317999958992
1782942145921119000,5.971118896484375,0.04168746992945671,0.09500667452812195,0.05249485746026039
1782942145931104300,5.981104248046875,0.044261958450078964,0.06427521258592606,0.04395841807126999
1782942145941089300,5.99108935546875,0.039398226886987686,0.01910454034805298,0.02460096962749958
1782942145951074000,6.001073974609375,0.030717849731445312,-0.016635937616229057,0.00614963099360466
1782942145961059000,6.01105908203125,0.017316825687885284,-0.03543546050786972,-0.009413084015250206
1782942145971044000,6.021044189453125,-0.003172174096107483,-0.03943018615245819,-0.01408415287733078
1782942145981029000,6.031029052734375,-0.019206002354621887,-0.04145045951008797,-0.01787170022726059
1782942145991014000,6.041013916015625,-0.03433758020401001,-0.04992305487394333,-0.016076311469078064
1782942146000999000,6.0509990234375,-0.04081891477108002,-0.053324710577726364,-0.008429044857621193
1782942146010984200,6.060984130859375,-0.0390406996011734,-0.056318145245313644,-0.004114739131182432
1782942146020969200,6.07096923828125,-0.04060184583067894,-0.04755714535713196,0.008731285110116005
1782942146030954200,6.080954345703125,-0.026194611564278603,-0.027010053396224976,0.02147800102829933
1782942146040939000,6.09093896484375,-0.013750990852713585,0.0036176303401589394,0.03396423161029816
1782942146050924000,6.100924072265625,-0.000561203807592392,0.029156919568777084,0.04526691883802414
1782942146060909000,6.110908935546875,0.013821996748447418,0.04404798522591591,0.04997778311371803
1782942146070894000,6.12089404296875,0.02825952135026455,0.043899618089199066,0.04635568708181381
1782942146080878800,6.13087890625,0.04124829173088074,0.026673229411244392,0.022187232971191406
1782942146090864000,6.140864013671875,0.04839886352419853,-0.01593189686536789,-0.014368572272360325
1782942146100849200,6.15084912109375,0.05655772238969803,-0.0642903745174408,-0.056819625198841095
1782942146110834200,6.160834228515625,0.057479165494441986,-0.09960930049419403,-0.08274182677268982
1782942146120819200,6.170819091796875,0.0430043525993824,-0.11199912428855896,-0.0911419689655304
1782942146130804000,6.180803955078125,0.028358040377497673,-0.09654447436332703,-0.0695558562874794
1782942146140789000,6.1907890625,0.013926902785897255,-0.07037679105997086,-0.03928157314658165
1782942146150774000,6.20077392578125,0.004498188383877277,-0.037984516471624374,-0.007483662571758032
1782942146160759300,6.21075927734375,-0.002532823011279106,-0.024977371096611023,0.018125027418136597
1782942146170744000,6.220744140625,-0.005008702166378498,-0.010644190013408661,0.027664631605148315
1782942146180729000,6.23072900390625,-0.00231331679970026,-0.009305952116847038,0.032893482595682144
1782942146190714000,6.240714111328125,0.005853257142007351,-0.0094666238874197,0.021088160574436188
1782942146200699100,6.25069921875,0.015311740338802338,-0.01643425226211548,0.005756876431405544
1782942146210684200,6.26068408203125,0.03220313787460327,-0.036246560513973236,-0.015122992917895317
1782942146220669000,6.2706689453125,0.046779949218034744,-0.06237936019897461,-0.033274829387664795
1782942146230654000,6.280654052734375,0.0569252148270607,-0.0858670026063919,-0.0424121730029583
1782942146240639200,6.29063916015625,0.0646664947271347,-0.09387938678264618,-0.041625477373600006
1782942146250624300,6.300624267578125,0.06529635936021805,-0.07995503395795822,-0.028276268392801285
1782942146260610000,6.310610107421875,0.06251708418130875,-0.07161321491003036,-0.009737471118569374
1782942146270595000,6.320594970703125,0.05204074829816818,-0.05339260771870613,0.014063861221075058
1782942146280580000,6.330580078125,0.04124615713953972,-0.032052431255578995,0.035704441368579865
1782942146290565000,6.340565185546875,0.02347140572965145,0.0019368212670087814,0.047749996185302734
1782942146300550000,6.3505498046875,0.01799807697534561,0.029146870598196983,0.053052615374326706
1782942146310535200,6.36053515625,0.014958130195736885,0.0354749895632267,0.044362157583236694
1782942146320520200,6.370520263671875,0.018632493913173676,0.013471421785652637,0.01948130875825882
1782942146330505200,6.380505126953125,0.027905592694878578,-0.028654154390096664,-0.00930025801062584
1782942146340490000,6.390489990234375,0.03954467549920082,-0.07765817642211914,-0.03368229418992996
1782942146350475000,6.40047509765625,0.047471046447753906,-0.1095702275633812,-0.038435179740190506
1782942146360460000,6.4104599609375,0.05361895635724068,-0.1146366223692894,-0.013252859935164452
1782942146370445000,6.420445068359375,0.05766955018043518,-0.09524497389793396,0.020125452429056168
1782942146380430000,6.43043017578125,0.05940379947423935,-0.06475338339805603,0.05486159399151802
1782942146390415000,6.4404150390625,0.059468820691108704,-0.03707609325647354,0.0911555290222168
1782942146400400100,6.450400146484375,0.05518299713730812,-0.013552390038967133,0.11085626482963562
1782942146410385200,6.46038525390625,0.055866386741399765,0.0006930539384484291,0.11717572808265686
1782942146420370200,6.4703701171875,0.06069523096084595,-0.010875185020267963,0.10752017050981522
1782942146430355200,6.480355224609375,0.06994623690843582,-0.04400291666388512,0.08280771225690842
1782942146440340000,6.490340087890625,0.07871735095977783,-0.08406831324100494,0.053295623511075974
1782942146450325000,6.500324951171875,0.08702617883682251,-0.12327514588832855,0.0236386489123106
1782942146460310000,6.51031005859375,0.09443802386522293,-0.14677859842777252,0.009728425182402134
1782942146470295300,6.52029541015625,0.09839366376399994,-0.14499393105506897,0.009328058920800686
1782942146480280000,6.530280029296875,0.10812458395957947,-0.12550091743469238,0.024113662540912628
1782942146490265000,6.54026513671875,0.12130369246006012,-0.10125933587551117,0.042764823883771896
1782942146500250000,6.55025,0.13764378428459167,-0.07089530676603317,0.06694286316633224
1782942146510235100,6.560235107421875,0.15093638002872467,-0.028846457600593567,0.08379164338111877
1782942146520220200,6.57022021484375,0.15297237038612366,-0.005788275972008705,0.09502645581960678
1782942146530205000,6.580204833984375,0.14823469519615173,0.0008909152820706367,0.09420215338468552
1782942146540190000,6.59018994140625,0.139269158244133,-0.0019277743995189667,0.07979631423950195
1782942146550175200,6.60017529296875,0.13663311302661896,-0.021314356476068497,0.0549701526761055
1782942146560160300,6.61016015625,0.13820864260196686,-0.04334641993045807,0.028601128607988358
1782942146570145000,6.62014501953125,0.13612282276153564,-0.05613596737384796,0.012524241581559181
1782942146580130000,6.630130126953125,0.12678605318069458,-0.05512449890375137,0.00257334066554904
1782942146590115000,6.640114990234375,0.11497603356838226,-0.03681312873959541,-0.003665265627205372
1782942146600100000,6.65010009765625,0.09449473023414612,-0.018513215705752373,-0.007922062650322914
1782942146610085000,6.660085205078125,0.07770006358623505,-0.002844015136361122,-0.014596226625144482
1782942146620071200,6.6700712890625,0.06280766427516937,0.004370754584670067,-0.023595314472913742
1782942146630056200,6.68005615234375,0.05663393810391426,0.010015171952545643,-0.033377110958099365
1782942146640041200,6.690041259765625,0.05757962539792061,0.016981467604637146,-0.03412146866321564
1782942146650026000,6.70002587890625,0.05601363256573677,0.02966509386897087,-0.02810954861342907
1782942146660011000,6.710010986328125,0.049364253878593445,0.03776935860514641,-0.025446919724345207
1782942146669996000,6.71999609375,0.04466407746076584,0.038358524441719055,-0.028865110129117966
1782942146679981000,6.72998095703125,0.04791819304227829,0.029447851702570915,-0.031673677265644073
1782942146689966000,6.739966064453125,0.05072803050279617,0.017689142376184464,-0.037391647696495056
1782942146699951000,6.749951171875,0.04572954401373863,0.014557263813912868,-0.043938495218753815
1782942146709936000,6.75993603515625,0.04381236806511879,0.010759368538856506,-0.04711027070879936
1782942146719921200,6.769921142578125,0.038492437452077866,0.01578501984477043,-0.04399064555764198
1782942146729906200,6.77990625,0.03760559856891632,0.013910630717873573,-0.04102134704589844
1782942146739891000,6.789890869140625,0.039371006190776825,0.00528625026345253,-0.04018351808190346
1782942146749876000,6.7998759765625,0.04154093191027641,-0.010042538866400719,-0.04849376901984215
1782942146759861000,6.809861083984375,0.04857327416539192,-0.030181895941495895,-0.05187278613448143
1782942146769846300,6.81984619140625,0.05176669359207153,-0.027348097413778305,-0.04819304496049881
1782942146779831300,6.829831298828125,0.05850449204444885,-0.00859944336116314,-0.03067823126912117
1782942146789816000,6.839816162109375,0.06550171971321106,0.02330082654953003,-0.012550788931548595
1782942146799801000,6.849801025390625,0.07188931107521057,0.04169847443699837,0.0005676751025021076
1782942146809786000,6.8597861328125,0.07360191643238068,0.034357067197561264,0.0034551206044852734
1782942146819771100,6.869771240234375,0.08105237782001495,0.004986395128071308,0.008110592141747475
1782942146829755600,6.879755615234375,0.08043082803487778,-0.012651204131543636,0.0136480201035738
1782942146839740400,6.889740478515625,0.07345600426197052,-0.006774673238396645,0.01244720071554184
1782942146849725400,6.899725341796875,0.06941068172454834,0.024933889508247375,0.011770613491535187
1782942146859710500,6.90971044921875,0.06021745130419731,0.06553271412849426,-0.0019734282977879047
1782942146869695700,6.91969580078125,0.04978850111365318,0.08333849906921387,-0.020410750061273575
1782942146879680500,6.929680419921875,0.04903668910264969,0.05512790009379387,-0.045563243329524994
1782942146889665500,6.93966552734375,0.05580725520849228,0.00817461684346199,-0.07991749793291092
1782942146899650600,6.949650634765625,0.06479649245738983,-0.03406604751944542,-0.10621168464422226
1782942146909635600,6.959635498046875,0.07013160735368729,-0.060801465064287186,-0.12370400130748749
1782942146919620600,6.96962060546875,0.07398812472820282,-0.07193773984909058,-0.12959863245487213
1782942146929605400,6.97960546875,0.07653166353702545,-0.0678870677947998,-0.11920967698097229
1782942146939590400,6.98959033203125,0.0753907635807991,-0.0553627535700798,-0.09459647536277771
1782942146949575700,6.99957568359375,0.072207011282444,-0.04601047933101654,-0.0638812780380249
1782942146959560700,7.009560791015625,0.06859683245420456,-0.004945334047079086,-0.02354903519153595
1782942146969546500,7.01954638671875,0.06549426913261414,0.03998715803027153,0.015633640810847282
1782942146979531500,7.029531494140625,0.05525921285152435,0.07724717259407043,0.04824857413768768
1782942146989516500,7.0395166015625,0.04703935980796814,0.0974874347448349,0.07017391920089722
1782942146999501600,7.04950146484375,0.03410518914461136,0.10610462725162506,0.07933332771062851
1782942147009486300,7.059486328125,0.02741846814751625,0.09530423581600189,0.07307127118110657
1782942147019471600,7.0694716796875,0.022019442170858383,0.06032787635922432,0.05074865370988846
1782942147029456600,7.07945654296875,0.020147498697042465,0.008290184661746025,0.022262554615736008
1782942147039441700,7.089441650390625,0.024104688316583633,-0.04408913105726242,-0.015548473224043846
1782942147049426400,7.099426513671875,0.02912425436079502,-0.08081831783056259,-0.038946229964494705
1782942147059411500,7.109411376953125,0.03208169341087341,-0.09182009845972061,-0.055795785039663315
1782942147069396500,7.119396484375,0.031890712678432465,-0.08360588550567627,-0.05052676796913147
1782942147079381500,7.129381591796875,0.030688825994729996,-0.05770371854305267,-0.03383487090468407
1782942147089366500,7.139366455078125,0.03211549296975136,-0.014267714694142342,-0.004182976670563221
1782942147099351600,7.1493515625,0.028726888820528984,0.024812841787934303,0.02155620977282524
1782942147109336600,7.159336669921875,0.03835286200046539,0.0475376658141613,0.041358355432748795
1782942147119321600,7.169321533203125,0.054012782871723175,0.042453426867723465,0.03707332909107208
1782942147129306600,7.179306640625,0.06302046030759811,0.007944800890982151,0.01014619879424572
1782942147139291600,7.189291748046875,0.06493926793336868,-0.03241647034883499,-0.03631877154111862
1782942147149276400,7.1992763671875,0.06454240530729294,-0.0598173588514328,-0.07304432988166809
1782942147159261400,7.209261474609375,0.0564996637403965,-0.05562154948711395,-0.0943797156214714
1782942147169246500,7.21924658203125,0.05166361480951309,-0.0357089638710022,-0.08632464706897736
1782942147179231700,7.229231689453125,0.040908172726631165,-0.03169824182987213,-0.06538712978363037
1782942147189216500,7.239216552734375,0.03540663793683052,-0.03084580972790718,-0.04576098546385765
1782942147199201500,7.249201416015625,0.031093381345272064,-0.03299764543771744,-0.03185342624783516
1782942147209186600,7.2591865234375,0.03259196877479553,-0.04513264447450638,-0.03509717062115669
1782942147219171600,7.269171630859375,0.024188362061977386,-0.04484475404024124,-0.04560573771595955
1782942147229156600,7.279156494140625,0.012350810691714287,-0.03373599424958229,-0.055791355669498444
1782942147239141400,7.289141357421875,-0.002862763125449419,-0.016788968816399574,-0.060012198984622955
1782942147249126400,7.29912646484375,-0.010369817726314068,-0.006573554128408432,-0.05782369151711464
1782942147259111700,7.309111572265625,-0.020855214446783066,-0.01305968314409256,-0.06356653571128845
1782942147269096700,7.3190966796875,-0.02132319286465645,-0.03195050358772278,-0.08006124943494797
1782942147279081500,7.32908154296875,-0.019596664234995842,-0.05715039744973183,-0.10531280934810638
1782942147289066500,7.33906640625,-0.017244068905711174,-0.07847415655851364,-0.12243472039699554
1782942147299051500,7.349051513671875,-0.019294170662760735,-0.09950487315654755,-0.119076207280159
1782942147309036500,7.35903662109375,-0.017085637897253036,-0.09855145215988159,-0.09718786925077438
1782942147319022600,7.369022705078125,-0.020860668271780014,-0.07735348492860794,-0.055485695600509644
1782942147329006300,7.37900634765625,-0.026772543787956238,-0.04444413259625435,-0.0070345839485526085
1782942147338992600,7.38899267578125,-0.03261419013142586,-0.009180418215692043,0.04263363406062126
1782942147348977700,7.398977783203125,-0.04355376213788986,0.02226092293858528,0.08049239963293076
1782942147358962400,7.40896240234375,-0.05352730304002762,0.05632141977548599,0.10220888257026672
1782942147368947500,7.418947509765625,-0.058061834424734116,0.07667575776576996,0.1080571636557579
1782942147378932500,7.428932373046875,-0.059572380036115646,0.0734352245926857,0.08903606981039047
1782942147388917500,7.43891748046875,-0.050802815705537796,0.041582051664590836,0.054931800812482834
1782942147398902500,7.448902587890625,-0.03886306658387184,0.010091769509017467,0.00797761045396328
1782942147408887600,7.458887451171875,-0.030404094606637955,-0.017234910279512405,-0.028446361422538757
1782942147418872600,7.46887255859375,-0.028167039155960083,-0.037441644817590714,-0.05808095261454582
1782942147428857600,7.478857666015625,-0.03058704547584057,-0.04902338236570358,-0.06405781954526901
1782942147438842600,7.488842529296875,-0.036755193024873734,-0.03974998742341995,-0.07196713984012604
1782942147448827400,7.498827392578125,-0.04087032377719879,-0.030574500560760498,-0.08140604197978973
1782942147458812400,7.5088125,-0.043899670243263245,-0.010346727445721626,-0.09150901436805725
1782942147468797400,7.51879736328125,-0.045985206961631775,0.007709660567343235,-0.09688139706850052
1782942147478782700,7.52878271484375,-0.039543554186820984,0.02992681786417961,-0.1018977239727974
1782942147488767700,7.538767822265625,-0.033094920217990875,0.031731609255075455,-0.10331043601036072
1782942147498752500,7.54875244140625,-0.02475709468126297,0.024921905249357224,-0.09776467084884644
1782942147508737500,7.558737548828125,-0.011122481897473335,0.026110701262950897,-0.08809714019298553
1782942147518722600,7.56872265625,0.007779303472489119,0.030385341495275497,-0.06105407699942589
1782942147528707600,7.57870751953125,0.023315591737627983,0.06264900416135788,-0.046121492981910706
1782942147538692400,7.5886923828125,0.03225582465529442,0.09184709936380386,-0.05499967560172081
1782942147548677400,7.598677490234375,0.04572662338614464,0.07918773591518402,-0.10623855888843536
1782942147558662700,7.60866259765625,0.042996615171432495,0.00878600962460041,-0.18271362781524658
1782942147568647700,7.618647705078125,0.0177136417478323,0.2412177473306656,-0.05148717015981674
1782942147578632700,7.6286328125,-0.018175914883613586,0.24636752903461456,-0.034772638231515884
1782942147588617500,7.638617431640625,-0.020176781341433525,0.1160142719745636,-0.0992499440908432
1782942147598602500,7.6486025390625,-0.011236550286412239,-0.0244847871363163,-0.1703704595565796
1782942147608587500,7.65858740234375,0.016571421176195145,-0.1365414261817932,-0.19030359387397766
1782942147618572500,7.668572509765625,0.03310272842645645,-0.23589251935482025,-0.1735595017671585
1782942147628557600,7.6785576171875,0.04524590075016022,-0.27247196435928345,-0.13631609082221985
1782942147638542600,7.68854248046875,0.030122607946395874,-0.1535263955593109,-0.04885947331786156
1782942147648527600,7.698527587890625,-0.021673966199159622,0.04749128594994545,0.03670899197459221
