time,seconds_elapsed,z,y,x
1782942156946863600,0.079863525390625,0.08335630595684052,0.03834063559770584,-0.008998238481581211
1782942156956848600,0.0898486328125,0.09973927587270737,0.046731725335121155,0.013499081134796143
1782942156966833700,0.099833740234375,0.0974329262971878,0.03621967136859894,0.02560850977897644
1782942156976818700,0.109818603515625,0.08175622671842575,0.01926838606595993,0.031832583248615265
1782942156986803700,0.1198037109375,0.06513038277626038,0.00037863943725824356,0.03597579151391983
1782942156996788700,0.129788818359375,0.05517628788948059,-0.011343796737492085,0.03506552428007126
1782942157006773800,0.139773681640625,0.043431829661130905,-0.014136701822280884,0.019606158137321472
1782942157016758800,0.1497587890625,0.0376192107796669,-0.01892266795039177,0.0018532602116465569
1782942157026743600,0.15974365234375,0.033370908349752426,-0.03593998774886131,-0.016521669924259186
1782942157036728600,0.169728515625,0.03389262035489082,-0.05271630734205246,-0.03430066257715225
1782942157046713600,0.179713623046875,0.034775201231241226,-0.06693406403064728,-0.046582501381635666
1782942157056699600,0.18969970703125,0.029293347150087357,-0.0743592232465744,-0.04215339943766594
1782942157066684700,0.1996845703125,0.028470631688833237,-0.0707230269908905,-0.025375844910740852
1782942157076669700,0.209669677734375,0.02049846015870571,-0.0674143135547638,0.00017505604773759842
1782942157086654700,0.21965478515625,0.019361630082130432,-0.03875294327735901,0.013587954454123974
1782942157096639700,0.2296396484375,0.02849627286195755,-0.01950601302087307,0.01672888733446598
1782942157106624500,0.23962451171875,0.03389257565140724,-0.01769428700208664,0.005888526327908039
1782942157116609800,0.24960986328125,0.03983142599463463,-0.009909069165587425,-0.0061425697058439255
1782942157126594800,0.2595947265625,0.042678602039813995,-0.013753451406955719,-0.008120759390294552
1782942157136579800,0.269579833984375,0.035697389394044876,-0.01513856090605259,0.006749266758561134
1782942157146564600,0.279564697265625,0.02087981067597866,-0.01422685943543911,0.022528108209371567
1782942157156549600,0.289549560546875,0.013081276789307594,-0.005452277138829231,0.037251394242048264
1782942157166534700,0.29953466796875,0.007479940541088581,0.0051921699196100235,0.0379752516746521
1782942157176519700,0.309519775390625,-0.0014147507026791573,0.004597486928105354,0.032223090529441833
1782942157186504700,0.319504638671875,-0.010222905315458775,-0.0023130234330892563,0.01974598877131939
1782942157196489700,0.32948974609375,-0.015809684991836548,-0.000014715828001499176,0.01174239069223404
1782942157206474800,0.339474853515625,-0.020895209163427353,0.0017151637002825737,-0.001475105993449688
1782942157216459800,0.349459716796875,-0.014593902043998241,-0.0029869135469198227,-0.0035300012677907944
1782942157226444800,0.35944482421875,-0.004512070212513208,0.00465788971632719,0.0031499979086220264
1782942157236429600,0.3694296875,0.0025841884780675173,0.014853001572191715,0.01796915754675865
1782942157246414600,0.37941455078125,0.005701693240553141,0.01806219294667244,0.03386429697275162
1782942157256399600,0.389399658203125,0.0023932482581585646,0.0254141166806221,0.04092167317867279
1782942157266384600,0.399384521484375,-0.0020633162930607796,0.028299614787101746,0.03244265168905258
1782942157276370000,0.409369873046875,-0.003922734875231981,0.03258996829390526,0.013695864006876945
1782942157286354700,0.419354736328125,-0.00039454270154237747,0.01742495596408844,-0.012665792368352413
1782942157296339700,0.429339599609375,0.006360032595694065,-0.00591232581064105,-0.030270088464021683
1782942157306324700,0.43932470703125,0.014237884432077408,-0.027073709294199944,-0.03655432164669037
1782942157316309800,0.449309814453125,0.019829457625746727,-0.0405903160572052,-0.028997866436839104
1782942157326294800,0.459294677734375,0.01314258947968483,-0.04667210578918457,-0.016361869871616364
1782942157336279600,0.469279541015625,0.0005477019585669041,-0.045782074332237244,-0.012845433317124844
1782942157346264600,0.4792646484375,-0.0062194508500397205,-0.03951916843652725,-0.015245369635522366
1782942157356249900,0.489249755859375,-0.011445105075836182,-0.04064594954252243,-0.022554147988557816
1782942157366235000,0.49923486328125,-0.009764311835169792,-0.05411100387573242,-0.02875516563653946
1782942157376220700,0.509220703125,-0.003170857671648264,-0.050390295684337616,-0.029316559433937073
1782942157386205700,0.519205810546875,0.002897656988352537,-0.02987917885184288,-0.02253759652376175
1782942157396190700,0.529190673828125,0.003055049804970622,0.005486003123223782,-0.018259763717651367
1782942157406175500,0.539175537109375,0.011756710708141327,0.026999732479453087,-0.027590977028012276
1782942157416160500,0.549160400390625,0.00763733359053731,0.016680514439940453,-0.038530439138412476
1782942157426145800,0.559145751953125,0.002400726079940796,0.01583571918308735,-0.042608585208654404
1782942157436130800,0.569130859375,-0.0015117237344384193,0.00435003824532032,-0.041768092662096024
1782942157446115800,0.57911572265625,-0.009641004726290703,-0.0019106194376945496,-0.03529888764023781
1782942157456100600,0.5891005859375,-0.016878142952919006,-0.002159358933568001,-0.024490445852279663
1782942157466085600,0.599085693359375,-0.0217246375977993,0.000990203581750393,-0.01233913004398346
1782942157476070700,0.609070556640625,-0.027290113270282745,0.002277042716741562,-0.006714801769703627
1782942157486055700,0.6190556640625,-0.030106650665402412,0.007683185860514641,-0.0009314264170825481
1782942157496040700,0.629040771484375,-0.03082064352929592,0.014768259599804878,-0.001657137181609869
1782942157506025700,0.639025634765625,-0.026958461850881577,0.029932375997304916,0.00006815092638134956
1782942157516010800,0.6490107421875,-0.017750317230820656,0.05077693983912468,0.004799789283424616
1782942157525995800,0.658995849609375,-0.01194629818201065,0.06885272264480591,0.01152491569519043
1782942157535980800,0.668980712890625,-0.0057403347454965115,0.0730075091123581,0.023845231160521507
1782942157545965600,0.678965576171875,0.0000827261246740818,0.06616933643817902,0.033315930515527725
1782942157555950600,0.68895068359375,0.005536347161978483,0.04633544385433197,0.04476246237754822
1782942157565935600,0.698935546875,0.014883263036608696,0.026013562455773354,0.0501946359872818
1782942157575920600,0.708920654296875,0.017168786376714706,-0.00029980018734931946,0.04584755748510361
1782942157585905700,0.71890576171875,0.01986600272357464,-0.028823096305131912,0.04334413632750511
1782942157595890700,0.728890625,0.02589114010334015,-0.049597349017858505,0.036147475242614746
1782942157605875700,0.738875732421875,0.027680540457367897,-0.04672544077038765,0.03275592625141144
1782942157615860700,0.74886083984375,0.03281698003411293,-0.033218421041965485,0.03392239287495613
1782942157625845800,0.758845703125,0.030804704874753952,-0.009191029705107212,0.03082120046019554
1782942157635830500,0.76883056640625,0.02881479077041149,0.012552082538604736,0.020669497549533844
1782942157645815600,0.778815673828125,0.028142323717474937,0.025712458416819572,0.004911717958748341
1782942157655800600,0.788800537109375,0.028659509494900703,0.026389965787529945,-0.008258412592113018
1782942157665785900,0.798785888671875,0.028583895415067673,0.021803902462124825,-0.012585394084453583
1782942157675771000,0.80877099609375,0.027916772291064262,0.016681846231222153,-0.003945834003388882
1782942157685755600,0.818755615234375,0.028637420386075974,0.0039913225919008255,0.005480493418872356
1782942157695741700,0.82874169921875,0.030566880479454994,-0.009273349307477474,0.01773849129676819
1782942157705726700,0.838726806640625,0.034444134682416916,-0.018862983211874962,0.022579478099942207
1782942157715711500,0.84871142578125,0.042611248791217804,-0.027834640815854073,0.018526680767536163
1782942157725696800,0.85869677734375,0.052505165338516235,-0.028195977210998535,0.01563435047864914
1782942157735681800,0.868681884765625,0.05880247801542282,-0.033434949815273285,0.017414674162864685
1782942157745666800,0.878666748046875,0.0611409954726696,-0.033432312309741974,0.020420651882886887
1782942157755651800,0.88865185546875,0.05834760516881943,-0.031333208084106445,0.02386864647269249
1782942157765636600,0.89863671875,0.05715341866016388,-0.02367663010954857,0.025546588003635406
1782942157775621600,0.90862158203125,0.05111309885978699,-0.010579203255474567,0.020249027758836746
1782942157785606700,0.918606689453125,0.04498785361647606,-0.0020174523815512657,0.01193595677614212
1782942157795591700,0.928591796875,0.04424909129738808,-0.010153675451874733,-0.0031670955941081047
1782942157805576700,0.93857666015625,0.03913743793964386,-0.021785929799079895,-0.01144114788621664
1782942157815561700,0.948561767578125,0.039469003677368164,-0.03309185057878494,-0.0009717298671603203
1782942157825546800,0.958546630859375,0.04220299422740936,-0.04333258420228958,0.019046125933527946
1782942157835531300,0.96853125,0.035775721073150635,-0.055458489805459976,0.03982197865843773
1782942157845516300,0.978516357421875,0.030780736356973648,-0.05171665549278259,0.05856680870056152
1782942157855501300,0.988501220703125,0.03145744651556015,-0.02769014611840248,0.07116968929767609
1782942157865486300,0.998486328125,0.03557974100112915,-0.0003246525302529335,0.0698564276099205
1782942157875471400,1.008471435546875,0.031991131603717804,0.017803218215703964,0.0591244176030159
1782942157885456400,1.018456298828125,0.021147288382053375,0.03196708858013153,0.05380581319332123
1782942157895441400,1.02844140625,0.009386768564581871,0.04327673465013504,0.05069337412714958
1782942157905426200,1.03842626953125,0.002644142135977745,0.05639515817165375,0.04928211867809296
1782942157915411200,1.0484111328125,-0.0013937423937022686,0.0595073327422142,0.04455927014350891
1782942157925396200,1.058396240234375,0.00035863276571035385,0.04363396018743515,0.04001371189951897
1782942157935381500,1.068381591796875,0.0008569101337343454,0.014106430113315582,0.03697637468576431
1782942157945366300,1.0783662109375,-0.0017104134894907475,-0.018490727990865707,0.04002278670668602
1782942157955351300,1.088351318359375,-0.01380515843629837,-0.028709277510643005,0.04628654196858406
1782942157965336300,1.09833642578125,-0.025855403393507004,-0.02787838876247406,0.05407993495464325
1782942157975321300,1.1083212890625,-0.03664626553654671,-0.010338809341192245,0.05578435957431793
1782942157985306400,1.118306396484375,-0.049966856837272644,0.017473969608545303,0.05110824108123779
1782942157995291100,1.128291015625,-0.05585537478327751,0.036432743072509766,0.034030988812446594
1782942158005276200,1.138276123046875,-0.05575846508145332,0.03534669801592827,0.010992664843797684
1782942158015261400,1.148261474609375,-0.05485059320926666,0.0001618117094039917,-0.014971024356782436
1782942158025246500,1.15824658203125,-0.04769015312194824,-0.04254807159304619,-0.03311467915773392
1782942158035232300,1.168232177734375,-0.03190026432275772,-0.07842138409614563,-0.034523218870162964
1782942158045217300,1.17821728515625,-0.020786358043551445,-0.09205910563468933,-0.02637568488717079
1782942158055202300,1.188202392578125,-0.013012059032917023,-0.08805477619171143,-0.013464945368468761
1782942158065187300,1.198187255859375,-0.0034180576913058758,-0.0525277741253376,0.002149257343262434
1782942158075172400,1.20817236328125,0.016060834750533104,-0.0005173021927475929,0.018725303933024406
1782942158085157400,1.218157470703125,0.020591726526618004,0.04379555955529213,0.030346039682626724
1782942158095142400,1.228142333984375,0.016810836270451546,0.05770312249660492,0.02972072921693325
1782942158105127400,1.23812744140625,0.0051653687842190266,0.04790138453245163,0.018798239529132843
1782942158115112200,1.2481123046875,0.0017738332971930504,0.020499853417277336,0.008776497095823288
1782942158125097200,1.25809716796875,0.0015645814128220081,0.0023390473797917366,0.0017884522676467896
1782942158135082200,1.268082275390625,0.004667430650442839,-0.024128247052431107,-0.004654799588024616
1782942158145067300,1.2780673828125,0.007376558613032103,-0.04546216130256653,-0.0021630157716572285
1782942158155052500,1.288052490234375,0.012900221161544323,-0.058626167476177216,0.002252505626529455
1782942158165037300,1.298037353515625,0.019614335149526596,-0.0573897585272789,0.003226012922823429
1782942158175022300,1.308022216796875,0.017852120101451874,-0.047001831233501434,0.005311800632625818
1782942158185007400,1.31800732421875,0.009231464937329292,-0.03483147919178009,0.0034386017359793186
1782942158194992400,1.327992431640625,-0.006148556247353554,-0.02785532921552658,0.0001474674791097641
1782942158204977200,1.33797705078125,-0.019777536392211914,-0.021954985335469246,-0.009936332702636719
1782942158214962200,1.347962158203125,-0.025266047567129135,-0.024048229679465294,-0.021458499133586884
1782942158224947200,1.357947265625,-0.018329059705138206,-0.027039632201194763,-0.029504898935556412
1782942158234932500,1.367932373046875,0.00020281318575143814,-0.03188978135585785,-0.03297393023967743
1782942158244917500,1.37791748046875,0.013914627023041248,-0.04208012670278549,-0.027926107868552208
1782942158254902300,1.38790234375,0.023632768541574478,-0.05278869718313217,-0.01729024201631546
1782942158264887300,1.39788720703125,0.026476223021745682,-0.05687854439020157,0.005172791425138712
1782942158274872300,1.407872314453125,0.020640172064304352,-0.05087657645344734,0.03018333576619625
1782942158284857300,1.417857421875,0.011201940476894379,-0.0462215282022953,0.04653913155198097
1782942158294842400,1.42784228515625,0.0032207132317125797,-0.030170122161507607,0.05267824977636337
1782942158304827100,1.4378271484375,0.001671528909355402,-0.0066820611245930195,0.03999123349785805
1782942158314812400,1.4478125,0.0008603299502283335,0.018685080111026764,0.019107522442936897
1782942158324797400,1.45779736328125,-0.00943726021796465,0.04020632058382034,0.0017882869578897953
1782942158334782500,1.467782470703125,-0.025210363790392876,0.048331890255212784,-0.010425768792629242
1782942158344767200,1.477767333984375,-0.028790246695280075,0.04404524341225624,-0.010696575045585632
1782942158354752300,1.487752197265625,-0.016228381544351578,0.03813222795724869,-0.010590314865112305
1782942158364737300,1.4977373046875,0.0029910970479249954,0.012728379108011723,-0.004208834376186132
1782942158374722300,1.507722412109375,0.012737201526761055,-0.0199949461966753,0.004694112576544285
1782942158384708400,1.517708251953125,-0.00028667598962783813,-0.06196485832333565,0.013492103666067123
1782942158394693400,1.527693359375,-0.025974994525313377,-0.10141213238239288,0.02026638574898243
1782942158404678400,1.537678466796875,-0.05692945420742035,-0.12328952550888062,0.021478794515132904
1782942158414663400,1.547663330078125,-0.08482526242733002,-0.11195112019777298,0.009312142618000507
1782942158424648200,1.557648193359375,-0.1017531082034111,-0.07488619536161423,-0.011086346581578255
1782942158434633200,1.56763330078125,-0.11066937446594238,-0.018983513116836548,-0.035702478140592575
1782942158444618200,1.5776181640625,-0.11050748825073242,0.024282053112983704,-0.06305744498968124
1782942158454603500,1.587603515625,-0.10637479275465012,0.044511158019304276,-0.08531241863965988
1782942158464588300,1.59758837890625,-0.0911954864859581,0.036888960748910904,-0.10191821306943893
1782942158474573300,1.6075732421875,-0.07369106262922287,0.014497102238237858,-0.09551331400871277
1782942158484558300,1.617558349609375,-0.048560142517089844,-0.017918866127729416,-0.07288369536399841
1782942158494543400,1.62754345703125,-0.03417587652802467,-0.060347817838191986,-0.03846953436732292
1782942158504528400,1.6375283203125,-0.015631485730409622,-0.08704148232936859,-0.003818611614406109
1782942158514513200,1.64751318359375,0.000552276149392128,-0.09454919397830963,0.01756817102432251
1782942158524498200,1.657498291015625,0.005536583252251148,-0.08980695903301239,0.022479677572846413
1782942158534483500,1.6674833984375,0.011794745922088623,-0.0757521241903305,0.014747722074389458
1782942158544468500,1.677468505859375,0.004149336833506823,-0.04980500414967537,-0.010503169149160385
1782942158554453200,1.687453369140625,0.0005324976518750191,-0.004811162129044533,-0.043298132717609406
1782942158564438300,1.697438232421875,-0.0014930879697203636,0.035224009305238724,-0.07019560784101486
1782942158574423300,1.70742333984375,-0.0010320944711565971,0.05645393207669258,-0.09138211607933044
1782942158584408300,1.717408203125,0.0036979340948164463,0.054562442004680634,-0.09591880440711975
1782942158594393300,1.727393310546875,0.009687649086117744,0.02564956806600094,-0.09139222651720047
1782942158604378000,1.737378173828125,0.026418961584568024,-0.026011468842625618,-0.07062603533267975
1782942158614363400,1.74736328125,0.047557003796100616,-0.06373994052410126,-0.03814611956477165
1782942158624348400,1.757348388671875,0.06306006014347076,-0.0753081813454628,-0.0034858761355280876
1782942158634333400,1.76733349609375,0.06748570501804352,-0.06640230119228363,0.02379767596721649
1782942158644318500,1.777318359375,0.07107511907815933,-0.040132053196430206,0.042833082377910614
1782942158654303200,1.78730322265625,0.06496955454349518,-0.003682965412735939,0.039175234735012054
1782942158664288300,1.797288330078125,0.0567404143512249,0.01756185293197632,0.017804879695177078
1782942158674273300,1.807273193359375,0.05908852070569992,0.020472953096032143,-0.01260442566126585
1782942158684258300,1.81725830078125,0.06716881692409515,0.0030302591621875763,-0.042954206466674805
1782942158694243300,1.827243408203125,0.07116915285587311,-0.019913673400878906,-0.06377719342708588
1782942158704228400,1.837228271484375,0.07318466156721115,-0.03847908601164818,-0.06886638700962067
1782942158714213400,1.84721337890625,0.06328435987234116,-0.03602152317762375,-0.058791641145944595
1782942158724198400,1.857198486328125,0.05332383140921593,-0.02259736880660057,-0.03636521100997925
1782942158734184200,1.86718408203125,0.0441412515938282,0.007003134116530418,-0.015347008593380451
1782942158744169200,1.877169189453125,0.04013666883111,0.042849101126194,0.005583633668720722
1782942158754154200,1.887154296875,0.04222219064831734,0.07480623573064804,0.012674832716584206
1782942158764139500,1.897139404296875,0.04638417810201645,0.07952216267585754,0.00944867916405201
1782942158774124300,1.907124267578125,0.049785833805799484,0.07044291496276855,-0.0035344967618584633
1782942158784109300,1.917109375,0.05556950718164444,0.05351020023226738,-0.01351407915353775
1782942158794094300,1.92709423828125,0.06169610843062401,0.03421160578727722,-0.024058332666754723
1782942158804079400,1.937079345703125,0.068708136677742,0.018183518201112747,-0.029491733759641647
1782942158814064400,1.947064453125,0.07263629883527756,0.007567624561488628,-0.03412936255335808
1782942158824049200,1.957049072265625,0.07403122633695602,0.012119167484343052,-0.032903485000133514
1782942158834035000,1.967034912109375,0.07358674705028534,0.016730695962905884,-0.031356193125247955
1782942158844020000,1.97702001953125,0.06647270917892456,0.014648455195128918,-0.03289860486984253
1782942158854004700,1.987004638671875,0.0624297633767128,0.010037458501756191,-0.0351116918027401
1782942158863989800,1.99698974609375,0.05745784938335419,0.013073194772005081,-0.0377783440053463
1782942158873974800,2.006974853515625,0.059546034783124924,0.014487067237496376,-0.041911035776138306
1782942158883959800,2.016959716796875,0.0640353262424469,0.007698163390159607,-0.04313855618238449
1782942158893945000,2.026945068359375,0.0665442943572998,0.009966112673282623,-0.0396287776529789
1782942158903929900,2.036929931640625,0.07138856500387192,0.02194753661751747,-0.024818062782287598
1782942158913915000,2.046914794921875,0.0759846493601799,0.022570714354515076,-0.007353318855166435
1782942158923900000,2.05689990234375,0.0773543193936348,0.021665828302502632,-0.0030569774098694324
1782942158933885000,2.066885009765625,0.07414653897285461,0.016186906024813652,-0.0018705395050346851
1782942158943870000,2.076869873046875,0.0712011381983757,0.012547877617180347,-0.008504504337906837
1782942158953854700,2.086854736328125,0.07047595828771591,-0.008513199165463448,-0.022323381155729294
1782942158963839700,2.09683984375,0.06084144115447998,-0.03860105946660042,-0.030569592490792274
1782942158973825000,2.106824951171875,0.04803669452667236,-0.05570893734693527,-0.03440667316317558
1782942158983810000,2.11681005859375,0.036379776895046234,-0.05816591531038284,-0.02798672765493393
1782942158993794800,2.126794921875,0.02906913496553898,-0.043686576187610626,-0.013635220006108284
1782942159003779800,2.13677978515625,0.027216129004955292,-0.009824046865105629,0.001947055570781231
1782942159013764900,2.146764892578125,0.02131536230444908,0.028118006885051727,0.01346762478351593
1782942159023750000,2.15675,0.024292439222335815,0.05175188183784485,0.0143567631021142
1782942159033735000,2.16673486328125,0.0224537942558527,0.0659680962562561,0.008828306570649147
1782942159043719700,2.1767197265625,0.02289404720067978,0.0660477727651596,0.0006314096972346306
1782942159053705000,2.186705078125,0.022996844723820686,0.05517461523413658,-0.012806633487343788
1782942159063691000,2.19669091796875,0.022978661581873894,0.03334851935505867,-0.0166446715593338
1782942159073675800,2.20667578125,0.017747947946190834,0.0048391129821538925,-0.013842226937413216
1782942159083660800,2.216660888671875,0.0055582402274012566,-0.0237752553075552,-0.0034096953459084034
1782942159093645800,2.226645751953125,-0.007996717467904091,-0.0488893948495388,0.012262474745512009
1782942159103630800,2.236630859375,-0.018813489004969597,-0.05344141274690628,0.025485116988420486
1782942159113616000,2.246615966796875,-0.03386540710926056,-0.0412750244140625,0.03394171968102455
1782942159123601000,2.256600830078125,-0.039113130420446396,-0.013018286786973476,0.029689427465200424
1782942159133586000,2.2665859375,-0.04023006185889244,0.02195168286561966,0.013925643637776375
1782942159143571000,2.276571044921875,-0.036245208233594894,0.04163983091711998,-0.007005714811384678
1782942159153556000,2.286555908203125,-0.03262783959507942,0.04777548462152481,-0.025354892015457153
1782942159163540700,2.296540771484375,-0.034818269312381744,0.0326656773686409,-0.031191090121865273
1782942159173525800,2.30652587890625,-0.04061437398195267,0.01178596168756485,-0.028560953214764595
1782942159183510800,2.3165107421875,-0.04451163858175278,-0.009888945147395134,-0.011481636203825474
1782942159193495800,2.326495849609375,-0.04075365141034126,-0.031563881784677505,0.0013068635016679764
1782942159203480800,2.336480712890625,-0.03541006147861481,-0.05538781359791756,0.008840504102408886
1782942159213465900,2.3464658203125,-0.02254033274948597,-0.07952777296304703,0.011825375258922577
1782942159223451000,2.356450927734375,-0.012107336893677711,-0.09161633998155594,0.0176626518368721
1782942159233436000,2.366435791015625,-0.004116255324333906,-0.07496333122253418,0.030753418803215027
1782942159243421000,2.3764208984375,0.0068436539731919765,-0.03000868856906891,0.040335312485694885
1782942159253405700,2.38640576171875,0.008768852800130844,0.022434014827013016,0.05017010122537613
1782942159263390700,2.396390625,0.0023985893931239843,0.06591027975082397,0.04397624358534813
1782942159273375700,2.406375732421875,-0.0015186541713774204,0.08467571437358856,0.03297365829348564
1782942159283361000,2.416361083984375,-0.009055650793015957,0.07705388218164444,0.008576098829507828
1782942159293346000,2.426345947265625,-0.015465346165001392,0.054708898067474365,-0.02066248096525669
1782942159303330800,2.436330810546875,-0.021921925246715546,0.01415233500301838,-0.03283931314945221
1782942159313315800,2.44631591796875,-0.027194716036319733,-0.01959497481584549,-0.030391335487365723
1782942159323300900,2.45630078125,-0.03467266261577606,-0.057816922664642334,-0.017300067469477654
1782942159333286000,2.466285888671875,-0.04240301996469498,-0.08923369646072388,-0.002372251357883215
1782942159343270700,2.476270751953125,-0.05099000036716461,-0.09187370538711548,0.01867104507982731
1782942159353255700,2.486255615234375,-0.04945122450590134,-0.06420878320932388,0.03662367910146713
1782942159363241000,2.496240966796875,-0.04526347666978836,-0.012880724854767323,0.037789057940244675
1782942159373226000,2.50622607421875,-0.041145697236061096,0.03567322716116905,0.0289140734821558
1782942159383211800,2.516211669921875,-0.04401950165629387,0.06986992806196213,0.006307024043053389
1782942159393196800,2.52619677734375,-0.04667707160115242,0.07588334381580353,-0.022658580914139748
1782942159403181800,2.536181884765625,-0.047026555985212326,0.058320652693510056,-0.04980899766087532
1782942159413166800,2.546166748046875,-0.048694759607315063,0.016254425048828125,-0.06242865324020386
1782942159423151900,2.55615185546875,-0.0448477640748024,-0.024124644696712494,-0.06231796741485596
1782942159433137000,2.566136962890625,-0.04252681881189346,-0.05160340666770935,-0.04663753882050514
1782942159443122000,2.576121826171875,-0.03536933660507202,-0.06609953939914703,-0.020831890404224396
1782942159453107000,2.58610693359375,-0.03138311579823494,-0.07452551275491714,0.009841600432991982
1782942159463092000,2.596092041015625,-0.0344398096203804,-0.06023021787405014,0.03069409914314747
1782942159473076700,2.60607666015625,-0.03221340477466583,-0.030479246750473976,0.03491733968257904
1782942159483061800,2.616061767578125,-0.03534827008843422,0.007250559516251087,0.031083956360816956
1782942159493046800,2.626046875,-0.03403719887137413,0.04441523924469948,0.0070308176800608635
1782942159503032000,2.636031982421875,-0.03308616206049919,0.06271640956401825,-0.016802556812763214
1782942159513016800,2.646016845703125,-0.0375131331384182,0.06808720529079437,-0.03483668342232704
1782942159523001900,2.656001953125,-0.04113371670246124,0.05252968147397041,-0.048819269984960556
1782942159532987000,2.66598681640625,-0.03797094523906708,0.02428445965051651,-0.04969331994652748
1782942159542972000,2.675971923828125,-0.028377460315823555,-0.0073309182189404964,-0.037508346140384674
1782942159552957000,2.68595703125,-0.016633186489343643,-0.03355133533477783,-0.015019549056887627
1782942159562941700,2.695941650390625,-0.01209649071097374,-0.031023701652884483,0.010299055837094784
1782942159572926700,2.7059267578125,-0.018126951530575752,-0.015515316277742386,0.02836407721042633
1782942159582912000,2.715912109375,-0.02784239873290062,0.00367862731218338,0.031211910769343376
1782942159592897000,2.72589697265625,-0.03962662070989609,0.02473624236881733,0.018572013825178146
1782942159602881800,2.7358818359375,-0.04323896765708923,0.03772018104791641,-0.00407395651564002
1782942159612866800,2.74586669921875,-0.04382672533392906,0.04873714596033096,-0.026943586766719818
1782942159622851800,2.755851806640625,-0.040062010288238525,0.05290110409259796,-0.039316870272159576
1782942159632836900,2.7658369140625,-0.030425362288951874,0.052138373255729675,-0.03809688240289688
1782942159642822000,2.77582177734375,-0.021936289966106415,0.05136988312005997,-0.030492611229419708
1782942159652806700,2.785806640625,-0.011577658355236053,0.044254183769226074,-0.016591977328062057
1782942159662792000,2.7957919921875,-0.0033828136511147022,0.0348854660987854,-0.005378889385610819
1782942159672777000,2.80577685546875,0.004694819916039705,0.01899304986000061,0.004990661516785622
1782942159682762800,2.8157626953125,0.004020999185740948,0.0011407183483242989,0.0031627588905394077
1782942159692747800,2.825747802734375,-0.008554713800549507,-0.015164218842983246,-0.0016165496781468391
1782942159702732800,2.83573291015625,-0.020582647994160652,-0.014997011050581932,-0.01716546341776848
1782942159712717800,2.8457177734375,-0.02718116156756878,-0.011414259672164917,-0.031335342675447464
1782942159722703000,2.855703125,-0.028638694435358047,-0.01577289029955864,-0.056005146354436874
1782942159732688000,2.86568798828125,-0.022338449954986572,-0.024585291743278503,-0.06998568028211594
1782942159742673000,2.8756728515625,-0.014186549931764603,-0.020303525030612946,-0.07172603160142899
1782942159752658000,2.885657958984375,-0.011295689269900322,-0.007392519153654575,-0.05808824673295021
1782942159762643000,2.895642822265625,-0.010903104208409786,0.007308192551136017,-0.042110636830329895
1782942159772627700,2.905627685546875,-0.017300285398960114,0.023190220817923546,-0.02787603996694088
1782942159782612700,2.91561279296875,-0.016478177160024643,0.03406219929456711,-0.009844835847616196
1782942159792597800,2.92559765625,-0.020233234390616417,0.03800341114401817,-0.005920134484767914
1782942159802583000,2.9355830078125,-0.01561126671731472,0.021500542759895325,-0.009644929319620132
1782942159812568000,2.945568115234375,-0.011981643736362457,0.003369474783539772,-0.019270125776529312
1782942159822552800,2.955552734375,-0.009843457490205765,-0.007090168073773384,-0.028071168810129166
1782942159832537900,2.965537841796875,-0.007978446781635284,-0.012012755498290062,-0.025904685258865356
1782942159842522600,2.975522705078125,-0.00490695983171463,-0.01281058881431818,-0.023337770253419876
1782942159852507600,2.985507568359375,-0.003564193844795227,-0.004933491349220276,-0.011579382233321667
1782942159862492700,2.99549267578125,-0.0033051087521016598,0.004078018479049206,-0.0023895204067230225
1782942159872477400,3.0054775390625,-0.0041429391130805016,0.013964205048978329,0.009822137653827667
1782942159882462500,3.01546240234375,-0.0009402562864124775,0.02195628546178341,0.015995899215340614
1782942159892447700,3.02544775390625,-0.001318691298365593,0.028385156765580177,0.015351681038737297
1782942159902432800,3.035432861328125,-0.0019136415794491768,0.0347442552447319,0.016765553504228592
1782942159912417500,3.04541748046875,0.002974590752273798,0.0287055354565382,0.012456825003027916
1782942159922402600,3.055402587890625,0.00858345627784729,0.015375158749520779,0.00891529768705368
1782942159932387600,3.0653876953125,0.013861307874321938,-0.0056995004415512085,0.003144227433949709
1782942159942372600,3.07537255859375,0.01658392697572708,-0.023962799459695816,0.003325813449919224
1782942159952357600,3.085357666015625,0.015948496758937836,-0.03418906778097153,-0.001287846826016903
1782942159962342400,3.09534228515625,0.015484570525586605,-0.030214063823223114,0.0011391597799956799
1782942159972328700,3.10532861328125,0.015265125781297684,-0.014744293875992298,0.008941156789660454
1782942159982313700,3.115313720703125,0.01668400689959526,0.008594886399805546,0.022736230865120888
1782942159992298500,3.125298583984375,0.017240872606635094,0.040329646319150925,0.03636921942234039
1782942160002283500,3.135283447265625,0.016642525792121887,0.06754003465175629,0.03984101116657257
1782942160012268500,3.1452685546875,0.012345247901976109,0.08458586782217026,0.037341367453336716
1782942160022253600,3.155253662109375,0.009422942996025085,0.08012597262859344,0.024273376911878586
1782942160032238800,3.16523876953125,0.008531849831342697,0.0539817176759243,0.004222172312438488
1782942160042223600,3.1752236328125,0.005204495973885059,0.022883452475070953,-0.010369553230702877
1782942160052208600,3.185208740234375,0.0064561814069747925,-0.00277131050825119,-0.013126990757882595
1782942160062193700,3.195193603515625,0.003424172755330801,-0.02810170128941536,-0.007320767268538475
1782942160072178700,3.2051787109375,0.0031288282480090857,-0.04171444848179817,0.005243494175374508
1782942160082163500,3.21516357421875,0.004167452454566956,-0.03728862479329109,0.01777706854045391
1782942160092148500,3.2251484375,0.0023266752250492573,-0.012699924409389496,0.027986295521259308
1782942160102133500,3.235133544921875,-0.002932801377028227,0.020205296576023102,0.02709067612886429
1782942160112118800,3.245118896484375,-0.01667897403240204,0.055183250457048416,0.013392172753810883
1782942160122103800,3.255103759765625,-0.027062110602855682,0.08361460268497467,-0.007466701325029135
1782942160132088600,3.265088623046875,-0.03378472477197647,0.08570518344640732,-0.028563998639583588
1782942160142073600,3.275073486328125,-0.031333863735198975,0.05873411148786545,-0.054109010845422745
1782942160152058600,3.28505859375,-0.02329431287944317,0.014844151213765144,-0.06854227185249329
1782942160162043600,3.295043701171875,-0.012490595690906048,-0.027772393077611923,-0.0659862831234932
1782942160172028400,3.3050283203125,0.0015269522555172443,-0.06225527077913284,-0.05201587826013565
1782942160182013400,3.315013427734375,0.015591304749250412,-0.07933342456817627,-0.02426363155245781
1782942160191998700,3.324998779296875,0.02473180741071701,-0.07634349167346954,0.0040444377809762955
1782942160201983700,3.334983642578125,0.028934553265571594,-0.0495128333568573,0.024975012987852097
1782942160211968800,3.34496875,0.02686421200633049,-0.008340099826455116,0.037350188940763474
1782942160221953500,3.35495361328125,0.0322348028421402,0.0344577431678772,0.039093125611543655
1782942160231938600,3.3649384765625,0.03536694496870041,0.05775561183691025,0.030727870762348175
1782942160241923600,3.374923583984375,0.03815606236457825,0.04955080896615982,0.013534044846892357
1782942160251908600,3.38490869140625,0.0393504872918129,0.03351378068327904,0.0005942774005234241
1782942160261894700,3.394894775390625,0.04354064539074898,0.013794920407235622,-0.006716064177453518
1782942160271879700,3.404879638671875,0.047380924224853516,-0.0053689200431108475,-0.008429010398685932
1782942160281864700,3.41486474609375,0.05293232947587967,-0.01115529052913189,0.004010389558970928
1782942160291849700,3.424849609375,0.05846691131591797,-0.009597607888281345,0.025274399667978287
1782942160301834500,3.43483447265625,0.0576239749789238,-0.018224265426397324,0.06171279400587082
1782942160311819500,3.444819580078125,0.057680435478687286,-0.030313950031995773,0.09291492402553558
1782942160321804500,3.454804443359375,0.05199778079986572,-0.02891981229186058,0.1209370419383049
1782942160331789600,3.46478955078125,0.0405627004802227,0.0013717804104089737,0.12498530745506287
1782942160341774600,3.474774658203125,0.023802686482667923,0.039767950773239136,0.11844821274280548
1782942160351759600,3.484759521484375,0.0030430806800723076,0.062084972858428955,0.08179165422916412
1782942160361744600,3.49474462890625,-0.007039916701614857,0.05277693271636963,0.029466208070516586
1782942160371729700,3.504729736328125,-0.008198658004403114,0.018820563331246376,-0.020782846957445145
1782942160381714700,3.514714599609375,-0.00047438498586416245,-0.026674654334783554,-0.04476363956928253
1782942160391699500,3.524699462890625,0.01960292086005211,-0.054480720311403275,-0.04049565643072128
1782942160401684500,3.5346845703125,0.039022356271743774,-0.06769353896379471,-0.005179837346076965
1782942160411669500,3.54466943359375,0.05278397724032402,-0.0529116615653038,0.04592648893594742
1782942160421654800,3.55465478515625,0.06537139415740967,-0.008448168635368347,0.10030505061149597
1782942160431639600,3.5646396484375,0.06469734758138657,0.03533979505300522,0.1312112957239151
1782942160441624600,3.57462451171875,0.06384304165840149,0.08375748246908188,0.13661183416843414
1782942160451609600,3.584609619140625,0.05692548304796219,0.11557719856500626,0.11816331744194031
1782942160461594600,3.5945947265625,0.05258828029036522,0.13442189991474152,0.07702665776014328
1782942160471579600,3.60457958984375,0.049924585968256,0.12547233700752258,0.024119500070810318
1782942160481564400,3.614564453125,0.04433907940983772,0.09470748901367188,-0.02042635902762413
1782942160491549400,3.624549560546875,0.04731356352567673,0.052045244723558426,-0.04841405153274536
1782942160501534700,3.63453466796875,0.04795806109905243,0.009444921277463436,-0.052825383841991425
1782942160511519700,3.644519775390625,0.054371751844882965,-0.023558035492897034,-0.03818918764591217
1782942160521505500,3.654505615234375,0.05774625763297081,-0.046693045645952225,-0.01060024555772543
1782942160531490600,3.664490478515625,0.05827968940138817,-0.061241891235113144,0.024524185806512833
1782942160541475600,3.6744755859375,0.05554909259080887,-0.07112812250852585,0.045260462909936905
1782942160551460600,3.684460693359375,0.05045126751065254,-0.07285784184932709,0.05227203294634819
1782942160561445600,3.694445556640625,0.037528298795223236,-0.05431752651929855,0.035996176302433014
1782942160571430700,3.7044306640625,0.025189608335494995,-0.028616957366466522,0.012613089755177498
1782942160581415700,3.714415771484375,0.011560946702957153,-0.004660123027861118,-0.02063671685755253
1782942160591400700,3.724400634765625,-0.0006871968507766724,0.015470977872610092,-0.04447253793478012
1782942160601385500,3.734385498046875,-0.00405692495405674,0.02348787896335125,-0.06076880544424057
1782942160611370500,3.74437060546875,-0.004728307947516441,0.03016974963247776,-0.05711042135953903
1782942160621355500,3.75435546875,0.0032598678953945637,0.029434941709041595,-0.038276027888059616
1782942160631340500,3.764340576171875,0.011818202212452888,0.019140493124723434,-0.010756784118711948
1782942160641325800,3.774325927734375,0.019471565261483192,0.010912911035120487,0.01364617794752121
1782942160651310600,3.784310546875,0.02480880543589592,0.001397969201207161,0.03026243858039379
1782942160661295600,3.794295654296875,0.022433247417211533,-0.009160030633211136,0.03511219844222069
1782942160671280600,3.80428076171875,0.011885000392794609,-0.00960770808160305,0.03210841864347458
1782942160681265700,3.814265625,-0.0014562993310391903,-0.0021387413144111633,0.026314135640859604
1782942160691250700,3.824250732421875,-0.014474896714091301,0.004542862996459007,0.01919204369187355
1782942160701235500,3.8342353515625,-0.02882670983672142,0.002488965168595314,0.013256680220365524
1782942160711220500,3.844220458984375,-0.03241398558020592,-0.003407273441553116,0.010412690229713917
1782942160721205800,3.854205810546875,-0.02667887508869171,-0.00618607085198164,0.01368771679699421
1782942160731190800,3.864190673828125,-0.01373031921684742,0.00554701779037714,0.01458892971277237
1782942160741175600,3.874175537109375,0.007620255462825298,0.020557768642902374,0.0167990792542696
1782942160751160600,3.88416064453125,0.030061915516853333,0.030325710773468018,0.023087069392204285
1782942160761145600,3.8941455078125,0.04510818421840668,0.04022999107837677,0.03886127471923828
1782942160771130600,3.904130615234375,0.05136634409427643,0.04582555592060089,0.055076196789741516
1782942160781115600,3.91411572265625,0.043411530554294586,0.049542173743247986,0.07634124159812927
1782942160791101700,3.924101806640625,0.02748449519276619,0.049157075583934784,0.09047064185142517
1782942160801086700,3.934086669921875,0.006878802087157965,0.048463694751262665,0.08778046816587448
1782942160811071700,3.94407177734375,-0.01148156262934208,0.04627217724919319,0.06982303410768509
1782942160821056500,3.954056396484375,-0.024732161313295364,0.032168466597795486,0.044908322393894196
1782942160831041500,3.96404150390625,-0.02633538469672203,0.020924601703882217,0.015424732118844986
1782942160841027000,3.974027099609375,-0.026632824912667274,0.01405266672372818,-0.0013119918294250965
1782942160851012000,3.98401220703125,-0.027312463149428368,0.01893370971083641,-0.012407254427671432
1782942160860996900,3.993996826171875,-0.02392701990902424,0.019062908366322517,-0.008624983951449394
1782942160870982000,4.00398193359375,-0.02225934900343418,0.018020017072558403,0.0016385712660849094
1782942160880967000,4.013966796875,-0.03425217047333717,0.004369270987808704,0.012118021957576275
1782942160890952000,4.023951904296875,-0.03767167031764984,-0.02210894227027893,0.01632528379559517
1782942160900937000,4.03393701171875,-0.04293294623494148,-0.06026051938533783,0.009254420176148415
1782942160910922000,4.043921875,-0.04525362700223923,-0.08230537176132202,-0.007236672565340996
1782942160920907000,4.053906982421875,-0.039408572018146515,-0.08323878794908524,-0.021947475150227547
1782942160930892000,4.06389208984375,-0.02799932472407818,-0.06772667914628983,-0.03203499689698219
1782942160940877000,4.073876953125,-0.015478434041142464,-0.03660725802183151,-0.03162822127342224
1782942160950861800,4.08386181640625,0.0033114978577941656,0.004588914103806019,-0.020730035379529
1782942160960846800,4.093846923828125,0.02146095782518387,0.040808599442243576,0.001147689763456583
1782942160970832000,4.103831787109375,0.03689504414796829,0.053919874131679535,0.022440994158387184
1782942160980817000,4.11381689453125,0.04249510541558266,0.05455261096358299,0.03987772762775421
1782942160990802200,4.12380224609375,0.04911812022328377,0.03582499176263809,0.05515148863196373
1782942161000787000,4.133786865234375,0.05172907933592796,0.004846543073654175,0.057159580290317535
1782942161010772000,4.14377197265625,0.05075808987021446,-0.03357275202870369,0.05573159456253052
1782942161020757000,4.153757080078125,0.039425332099199295,-0.06422281265258789,0.04727742075920105
1782942161030742000,4.163741943359375,0.02544347196817398,-0.06793446093797684,0.04293566942214966
1782942161040726800,4.173726806640625,0.003404433373361826,-0.051509857177734375,0.03610788658261299
1782942161050711800,4.1837119140625,-0.015940768644213676,-0.013073253445327282,0.029742132872343063
1782942161060698000,4.193697998046875,-0.0314643420279026,0.037591733038425446,0.01681901328265667
1782942161070683000,4.203682861328125,-0.03012983128428459,0.08413046598434448,-0.0012009995989501476
1782942161080668000,4.21366796875,-0.02857004478573799,0.10241170972585678,-0.01652034930884838
1782942161090653000,4.22365283203125,-0.015888871625065804,0.1023041158914566,-0.02276839129626751
1782942161100638000,4.233637939453125,-0.005435642786324024,0.07860866189002991,-0.012397278100252151
1782942161110623000,4.243623046875,0.005337642505764961,0.04634552448987961,0.007603595033288002
1782942161120607700,4.253607666015625,0.021227888762950897,0.008070217445492744,0.036780744791030884
1782942161130593000,4.263593017578125,0.020320016890764236,-0.021968642249703407,0.06262006610631943
1782942161140578000,4.273578125,0.007662833668291569,-0.036862682551145554,0.07296909391880035
1782942161150563000,4.28356298828125,-0.008099084720015526,-0.039881378412246704,0.06695780903100967
1782942161160548000,4.293548095703125,-0.022028734907507896,-0.04575217515230179,0.03346715122461319
1782942161170532900,4.303532958984375,-0.03107655793428421,-0.048614807426929474,-0.0103402528911829
1782942161180518000,4.313517822265625,-0.03647452965378761,-0.050470076501369476,-0.0544230192899704
1782942161190503000,4.3235029296875,-0.04470396414399147,-0.052280493080616,-0.08602675050497055
1782942161200488000,4.333488037109375,-0.047358885407447815,-0.052613791078329086,-0.09830624610185623
1782942161210473000,4.343472900390625,-0.04846356436610222,-0.057662878185510635,-0.08884669840335846
1782942161220458000,4.3534580078125,-0.035368531942367554,-0.06492313742637634,-0.06882359087467194
1782942161230443000,4.363443115234375,-0.01668272539973259,-0.07374432682991028,-0.04015199840068817
1782942161240428000,4.373427978515625,0.00501247588545084,-0.07477418333292007,-0.01194760575890541
1782942161250413000,4.3834130859375,0.023368580266833305,-0.07143644243478775,0.007452989928424358
1782942161260397800,4.393397705078125,0.040346186608076096,-0.05648962780833244,0.015769271180033684
1782942161270386000,4.403385986328125,0.046265859156847,-0.03131982684135437,0.018491555005311966
1782942161280371000,4.413370849609375,0.042962003499269485,0.0015348102897405624,0.01529146358370781
1782942161290356000,4.42335595703125,0.030814524739980698,0.03659772127866745,0.006659093778580427
1782942161300341000,4.433341064453125,0.013261857442557812,0.056690916419029236,-0.007718157023191452
1782942161310325800,4.44332568359375,0.002596696373075247,0.06080736219882965,-0.015851983800530434
1782942161320310800,4.453310791015625,-0.00742295989766717,0.0396139957010746,-0.023136701434850693
1782942161330296000,4.463296142578125,-0.010458696633577347,0.009292575530707836,-0.024595044553279877
1782942161340281000,4.473281005859375,-0.012808567844331264,-0.0254532303661108,-0.030140075832605362
1782942161350265900,4.483265869140625,-0.018963400274515152,-0.044249556958675385,-0.02741299942135811
1782942161360251000,4.4932509765625,-0.026691721752285957,-0.060953278094530106,-0.029238207265734673
1782942161370236000,4.50323583984375,-0.04062458127737045,-0.07316014170646667,-0.032373279333114624
1782942161380221000,4.513220947265625,-0.04758366942405701,-0.08563792705535889,-0.036088068038225174
1782942161390206000,4.5232060546875,-0.0521981306374073,-0.09097836166620255,-0.04069959744811058
1782942161400190700,4.533190673828125,-0.06393305212259293,-0.09373629093170166,-0.04293261095881462
1782942161410176000,4.543176025390625,-0.07073183357715607,-0.09700345993041992,-0.043072957545518875
1782942161420161000,4.5531611328125,-0.07326717674732208,-0.08803833276033401,-0.04670916497707367
1782942161430146000,4.56314599609375,-0.06848440319299698,-0.06136997044086456,-0.05472501367330551
1782942161440131000,4.573131103515625,-0.04990294948220253,-0.027201678603887558,-0.05451418459415436
1782942161450115800,4.58311572265625,-0.03319694101810455,0.005314186215400696,-0.04994820058345795
1782942161460100900,4.593100830078125,-0.01960603892803192,0.019067198038101196,-0.04346905276179314
1782942161470086000,4.6030859375,-0.008672164753079414,0.011076916009187698,-0.03704763948917389
1782942161480071000,4.61307080078125,-0.0017604953609406948,-0.007882697507739067,-0.02742036059498787
1782942161490056000,4.623055908203125,0.007156300358474255,-0.027185820043087006,-0.013770327903330326
1782942161500042000,4.6330419921875,0.015447283163666725,-0.03713271766901016,0.00022949278354644775
1782942161510027000,4.643027099609375,0.023254606872797012,-0.04234106093645096,0.011635012924671173
1782942161520011800,4.65301171875,0.030408065766096115,-0.0371154248714447,0.02312578819692135
1782942161529996800,4.662996826171875,0.036602847278118134,-0.02464623749256134,0.02590985782444477
1782942161539981800,4.67298193359375,0.03821701928973198,-0.015630871057510376,0.020813148468732834
1782942161549967000,4.682967041015625,0.03996777907013893,-0.00958336517214775,0.0003890986554324627
1782942161559952100,4.6929521484375,0.038593363016843796,-0.006642580032348633,-0.01734425127506256
1782942161569937000,4.70293701171875,0.029614781960844994,-0.014395308680832386,-0.0329170823097229
1782942161579922000,4.712921875,0.013651235029101372,-0.03575916960835457,-0.038230542093515396
1782942161589907000,4.722906982421875,0.0020766044035553932,-0.057647958397865295,-0.043573107570409775
1782942161599892000,4.73289208984375,-0.0007890048436820507,-0.08139876276254654,-0.04149388521909714
1782942161609877000,4.742876953125,0.00876934640109539,-0.09373638778924942,-0.029789822176098824
1782942161619861800,4.75286181640625,0.020518947392702103,-0.08829900622367859,-0.017818113788962364
1782942161629847000,4.762846923828125,0.03049381636083126,-0.0689050704240799,-0.008057361468672752
1782942161639832000,4.77283203125,0.03276868164539337,-0.04082638397812843,-0.00151829794049263
1782942161649817000,4.782817138671875,0.0343649797141552,-0.008149662055075169,-0.0024669161066412926
1782942161659801900,4.7928017578125,0.037240926176309586,0.01744115725159645,-0.010923981666564941
1782942161669787000,4.802786865234375,0.04087747260928154,0.020176755264401436,-0.015634847804903984
1782942161679772000,4.81277197265625,0.0391097217798233,0.0015990929678082466,-0.019568106159567833
1782942161689757000,4.8227568359375,0.042846135795116425,-0.021197831258177757,-0.018750248476862907
1782942161699742000,4.832741943359375,0.04741101711988449,-0.04349822551012039,-0.007273396477103233
1782942161709727000,4.84272705078125,0.04992584139108658,-0.051630184054374695,0.0048756785690784454
1782942161719712000,4.8527119140625,0.05214371532201767,-0.060369960963726044,0.020482007414102554
1782942161729697000,4.862697021484375,0.05370938777923584,-0.0675106942653656,0.022150477394461632
1782942161739682000,4.87268212890625,0.05193812772631645,-0.07435627281665802,0.017391737550497055
1782942161749667800,4.882667724609375,0.04753139242529869,-0.07395892590284348,0.013650527223944664
1782942161759652900,4.89265283203125,0.042707402259111404,-0.05487599968910217,0.008993620984256268
1782942161769638100,4.90263818359375,0.04333724081516266,-0.03085348941385746,0.000607859343290329
1782942161779623000,4.912622802734375,0.0485769622027874,-0.011234955862164497,-0.005326700396835804
1782942161789608000,4.92260791015625,0.05008910596370697,-0.0060303402133286,-0.00740955863147974
1782942161799593000,4.932593017578125,0.05641627311706543,-0.009171795099973679,-0.006340716499835253
1782942161809578000,4.942577880859375,0.06560550630092621,-0.026841070502996445,0.0023622275330126286
1782942161819563000,4.95256298828125,0.07017681002616882,-0.036263737827539444,0.017018742859363556
1782942161829547800,4.9625478515625,0.07190760225057602,-0.05147438496351242,0.02709002047777176
1782942161839532500,4.972532470703125,0.07568419724702835,-0.05334392935037613,0.03501254320144653
1782942161849517600,4.982517578125,0.08262040466070175,-0.03866405040025711,0.03686876595020294
1782942161859502600,4.992502685546875,0.08403663337230682,-0.022364608943462372,0.03560885041952133
1782942161869487600,5.002487548828125,0.08256284147500992,-0.003089713864028454,0.030995456501841545
1782942161879472400,5.012472412109375,0.07512255012989044,0.01961853727698326,0.021813642233610153
1782942161889457400,5.02245751953125,0.05818910896778107,0.04360003396868706,0.008249630220234394
1782942161899442700,5.032442626953125,0.04566583409905434,0.053919002413749695,-0.010069107636809349
1782942161909427700,5.042427734375,0.034889355301856995,0.045751623809337616,-0.025032611563801765
1782942161919412700,5.052412841796875,0.03695334121584892,0.019033577293157578,-0.038059886544942856
1782942161929397500,5.0623974609375,0.03802579641342163,-0.017753731459379196,-0.03837627172470093
1782942161939382500,5.072382568359375,0.051016662269830704,-0.061540182679891586,-0.03353428840637207
1782942161949367600,5.082367431640625,0.0650712251663208,-0.10194858908653259,-0.028217285871505737
1782942161959352600,5.0923525390625,0.0766250491142273,-0.11835139989852905,-0.010568827390670776
1782942161969337300,5.10233740234375,0.0815817266702652,-0.10408379137516022,0.005184835288673639
1782942161979322600,5.112322509765625,0.07650844752788544,-0.0723421722650528,0.01147379633039236
1782942161989307600,5.1223076171875,0.06764092296361923,-0.03471171110868454,0.009413841180503368
1782942161999292700,5.132292724609375,0.054026588797569275,-0.005520344711840153,-0.00629795528948307
1782942162009278500,5.142278564453125,0.03996030613780022,0.018024662509560585,-0.027197910472750664
1782942162019263500,5.152263427734375,0.032800089567899704,0.031693194061517715,-0.04705501347780228
1782942162029248500,5.16224853515625,0.036135170608758926,0.02588936686515808,-0.06218656152486801
1782942162039233800,5.17223388671875,0.052395716309547424,-0.0024894922971725464,-0.06698928773403168
1782942162049218600,5.182218505859375,0.06544920057058334,-0.044251322746276855,-0.055025044828653336
1782942162059203600,5.19220361328125,0.07160688936710358,-0.07960093766450882,-0.04085664823651314
1782942162069188600,5.202188720703125,0.07613559812307358,-0.09252499788999557,-0.016947321593761444
1782942162079173600,5.212173583984375,0.07147876918315887,-0.08172209560871124,-0.001879675779491663
1782942162089158700,5.22215869140625,0.06868191808462143,-0.047081030905246735,0.010120794177055359
1782942162099143400,5.232143310546875,0.06584038585424423,-0.012682806700468063,0.007056192960590124
1782942162109128400,5.24212841796875,0.06327096372842789,0.012180197983980179,-0.005740562919527292
1782942162119113700,5.25211376953125,0.06281472742557526,0.02863205596804619,-0.02228322997689247
1782942162129098800,5.2620986328125,0.06470237672328949,0.02870582416653633,-0.03182800114154816
1782942162139083500,5.27208349609375,0.06180833652615547,0.029613593593239784,-0.0299207866191864
1782942162149068500,5.282068603515625,0.053581032902002335,0.02500898577272892,-0.010584373027086258
1782942162159053600,5.292053466796875,0.04700755700469017,0.006280333735048771,0.006724772974848747
1782942162169038600,5.30203857421875,0.034885913133621216,-0.007254117634147406,0.01793375238776207
1782942162179023600,5.312023681640625,0.025827178731560707,-0.017754612490534782,0.01850692555308342
1782942162189008400,5.32200830078125,0.007739787921309471,-0.023071879521012306,0.004020926542580128
1782942162198993700,5.33199365234375,-0.005825031083077192,-0.02744780294597149,-0.01366438902914524
1782942162208978700,5.341978759765625,-0.012421680614352226,-0.01406009215861559,-0.02736741676926613
1782942162218963700,5.351963623046875,-0.013357210904359818,0.0066615501418709755,-0.03404358774423599
1782942162228948500,5.361948486328125,-0.010444510728120804,0.024733759462833405,-0.025038374587893486
1782942162238933500,5.37193359375,-0.007881812751293182,0.05279088765382767,-0.012193778529763222
1782942162248919600,5.38191943359375,-0.009439228102564812,0.07419764250516891,0.0035854522138834
1782942162258904600,5.391904541015625,-0.014845426194369793,0.09286286681890488,0.023416468873620033
1782942162268889600,5.4018896484375,-0.0248463936150074,0.10421992093324661,0.03217161074280739
1782942162278874600,5.41187451171875,-0.037020206451416016,0.10662157088518143,0.021906040608882904
1782942162288859600,5.421859619140625,-0.04434017091989517,0.09500326216220856,-0.0036650989204645157
1782942162298844700,5.4318447265625,-0.046557240188121796,0.07728621363639832,-0.03197357803583145
1782942162308829400,5.441829345703125,-0.04693754017353058,0.047255344688892365,-0.06036980077624321
1782942162318814500,5.451814453125,-0.045404382050037384,0.006323080509901047,-0.07978808879852295
1782942162328799500,5.461799560546875,-0.04074252396821976,-0.017470665276050568,-0.08196654915809631
1782942162338784500,5.471784423828125,-0.032873738557100296,-0.02468043938279152,-0.0691818818449974
1782942162348769800,5.481769775390625,-0.020329182967543602,-0.01884332299232483,-0.04578734189271927
1782942162358754600,5.491754638671875,-0.00600506691262126,-0.00890346709638834,-0.022898495197296143
1782942162368739600,5.501739501953125,0.003488303627818823,-0.003891131840646267,-0.007083314470946789
1782942162378724600,5.511724609375,0.009391730651259422,-0.0068493979051709175,-0.005137806758284569
1782942162388709600,5.521709716796875,0.010627437382936478,-0.010126683861017227,-0.018942035734653473
1782942162398694400,5.5316943359375,0.010121963918209076,-0.03168982267379761,-0.041362520307302475
1782942162408679400,5.541679443359375,0.002068032044917345,-0.05788441002368927,-0.06166646257042885
1782942162418664400,5.55166455078125,-0.009825381450355053,-0.07988906651735306,-0.0758887380361557
1782942162428649700,5.561649658203125,-0.02698119916021824,-0.0906306579709053,-0.07449750602245331
1782942162438634800,5.571634765625,-0.04385847970843315,-0.07385626435279846,-0.06422993540763855
1782942162448619500,5.58161962890625,-0.062563456594944,-0.033253446221351624,-0.04981716722249985
1782942162458604500,5.5916044921875,-0.0749727189540863,0.03387882560491562,-0.03513144329190254
1782942162468589600,5.601589599609375,-0.0864405483007431,0.0922156274318695,-0.031475719064474106
1782942162478575400,5.611575439453125,-0.08682078868150711,0.1301971971988678,-0.04273660108447075
1782942162488560600,5.621560546875,-0.08742239326238632,0.14982816576957703,-0.05833633244037628
1782942162498545700,5.631545654296875,-0.08131372183561325,0.14587654173374176,-0.07152731716632843
1782942162508530700,5.64153076171875,-0.0717867910861969,0.12985895574092865,-0.07555748522281647
1782942162518515700,5.651515625,-0.057227540761232376,0.10610289871692657,-0.06569827347993851
1782942162528500500,5.66150048828125,-0.04022938385605812,0.08487990498542786,-0.04447979852557182
1782942162538485500,5.671485595703125,-0.022396573796868324,0.07047771662473679,-0.016379931941628456
1782942162548470500,5.681470458984375,-0.002957097254693508,0.061992350965738297,0.015510888770222664
1782942162558455600,5.69145556640625,0.010143795982003212,0.07071026414632797,0.04047416150569916
1782942162568440600,5.701440673828125,0.010416770353913307,0.08302232623100281,0.05223681032657623
1782942162578425600,5.711425537109375,0.0026638342533260584,0.09353066980838776,0.05164255201816559
1782942162588410600,5.72141064453125,-0.008757664822041988,0.10777511447668076,0.0380825400352478
1782942162598395600,5.731395751953125,-0.023379288613796234,0.10417728126049042,0.013805072754621506
1782942162608380700,5.741380615234375,-0.03660774230957031,0.09222261607646942,-0.009899723343551159
1782942162618365400,5.751365478515625,-0.042289040982723236,0.07079958915710449,-0.03451673686504364
1782942162628350500,5.7613505859375,-0.053349148482084274,0.040254466235637665,-0.05335274338722229
1782942162638335500,5.77133544921875,-0.06495575606822968,0.009813039563596249,-0.056928955018520355
1782942162648320800,5.78132080078125,-0.07384166121482849,-0.01818051189184189,-0.0557079017162323
1782942162658305500,5.791305419921875,-0.07895541936159134,-0.037987712770700455,-0.04671841487288475
1782942162668290600,5.80129052734375,-0.07626056671142578,-0.04573538154363632,-0.03686019033193588
1782942162678275600,5.811275634765625,-0.07384990155696869,-0.042904339730739594,-0.03597375005483627
1782942162688260600,5.821260498046875,-0.06478796154260635,-0.025591127574443817,-0.03553272783756256
1782942162698246400,5.831246337890625,-0.05481923371553421,-0.005849332548677921,-0.038719721138477325
1782942162708231700,5.841231689453125,-0.04470215365290642,0.009506721049547195,-0.03531061112880707
1782942162718216700,5.851216796875,-0.04040166735649109,0.025050103664398193,-0.023397233337163925
1782942162728201700,5.86120166015625,-0.03907807916402817,0.029040317982435226,-0.012396777980029583
1782942162738186500,5.8711865234375,-0.03781575337052345,0.026445463299751282,-0.000911288894712925
1782942162748171500,5.881171630859375,-0.04440468177199364,0.014883616007864475,0.00305921770632267
1782942162758156500,5.891156494140625,-0.05515878275036812,-0.0011562556028366089,0.005731761455535889
1782942162768141600,5.9011416015625,-0.06804449111223221,-0.015875279903411865,0.004301910288631916
1782942162778126600,5.911126708984375,-0.07783450931310654,-0.02474123239517212,0.00004503224045038223
1782942162788111600,5.921111572265625,-0.07776261121034622,-0.021472200751304626,-0.000964838545769453
1782942162798096600,5.9310966796875,-0.07467441260814667,-0.0053064171224832535,-0.002217514906078577
1782942162808081700,5.94108154296875,-0.06926713138818741,0.014332531951367855,-0.001367433462291956
1782942162818066700,5.951066650390625,-0.05913199856877327,0.033525630831718445,0.0015802527777850628
1782942162828051500,5.961051513671875,-0.05280965194106102,0.04422834515571594,0.012514926493167877
1782942162838036700,5.97103662109375,-0.0468270368874073,0.05194178223609924,0.026612447574734688
1782942162848021800,5.981021728515625,-0.04715327173471451,0.052864037454128265,0.03625548630952835
1782942162858007000,5.991007080078125,-0.04395383596420288,0.04019128531217575,0.043740157037973404
1782942162867991800,6.00099169921875,-0.0417705774307251,0.02784060873091221,0.047289617359638214
1782942162877976800,6.010976806640625,-0.04121075198054314,0.006022453308105469,0.045567333698272705
1782942162887961900,6.0209619140625,-0.04410693794488907,-0.010227357037365437,0.03326272964477539
1782942162897947000,6.03094677734375,-0.05421444773674011,-0.016316009685397148,0.022510023787617683
1782942162907932700,6.0409326171875,-0.06156744062900543,-0.013359901495277882,0.012659789994359016
1782942162917918000,6.05091796875,-0.07480383664369583,-0.004253321327269077,0.004553634207695723
1782942162927903000,6.060903076171875,-0.09050770103931427,-0.004524164833128452,-0.0010890718549489975
1782942162937888000,6.070887939453125,-0.1012972891330719,-0.0037660785019397736,-0.011525962501764297
1782942162947872800,6.080872802734375,-0.10680922865867615,0.009720700792968273,-0.021392440423369408
1782942162957857800,6.09085791015625,-0.1092558354139328,0.023033052682876587,-0.02978835254907608
1782942162967842800,6.1008427734375,-0.10437585413455963,0.024531081318855286,-0.03570003807544708
1782942162977827800,6.110827880859375,-0.0959615707397461,0.019953086972236633,-0.03334535285830498
1782942162987812900,6.120812744140625,-0.08272513002157211,0.004513142630457878,-0.020650597289204597
1782942162997798000,6.1307978515625,-0.07267147302627563,-0.007253644522279501,0.00004984578117728233
1782942163007783000,6.140782958984375,-0.06329528242349625,-0.005355875939130783,0.024889416992664337
1782942163017768000,6.150767822265625,-0.061612196266651154,0.01750384271144867,0.04102179780602455
1782942163027753000,6.1607529296875,-0.06309850513935089,0.03736090660095215,0.04545782506465912
1782942163037737700,6.17073779296875,-0.06391206383705139,0.05521082133054733,0.03393504023551941
1782942163047722800,6.18072265625,-0.06271257996559143,0.07185903936624527,0.01677975431084633
1782942163057707800,6.190707763671875,-0.06500955671072006,0.08205676823854446,-0.008588315919041634
1782942163067692800,6.20069287109375,-0.06529771536588669,0.08080881088972092,-0.02384796179831028
1782942163077678000,6.210677978515625,-0.06153596192598343,0.05932363122701645,-0.029979048296809196
1782942163087662800,6.220662841796875,-0.0584123358130455,0.03784657269716263,-0.021244414150714874
1782942163097647900,6.23064794921875,-0.049967210739851,0.01944068819284439,-0.0037958333268761635
1782942163107633000,6.2406328125,-0.0378761924803257,0.007105723954737186,0.01388728991150856
1782942163117618000,6.250617919921875,-0.023805145174264908,-0.009622953832149506,0.026786528527736664
1782942163127603700,6.260603759765625,-0.011301602236926556,-0.024656496942043304,0.03483007103204727
1782942163137589000,6.270589111328125,-0.00601333798840642,-0.023509470745921135,0.02700049616396427
1782942163147574000,6.280573974609375,-0.00006570061668753624,-0.014982028864324093,0.01628606766462326
1782942163157559000,6.29055908203125,0.0067357467487454414,0.0019101351499557495,0.014044484123587608
1782942163167543800,6.300543701171875,0.006491268053650856,0.02099461294710636,0.010173046961426735
1782942163177528800,6.31052880859375,-0.002772529609501362,0.04338708519935608,0.005520832724869251
1782942163187513900,6.320513916015625,-0.00540692824870348,0.07240595668554306,0.0022747055627405643
1782942163197499000,6.330498779296875,-0.008745495229959488,0.08472517132759094,0.005284295417368412
1782942163207483600,6.340483642578125,-0.0027584433555603027,0.09121236950159073,0.009841229766607285
1782942163217469000,6.350468994140625,0.012946763075888157,0.08870300650596619,0.022168396040797234
1782942163227454000,6.360453857421875,0.021075529977679253,0.07981390506029129,0.03669407591223717
1782942163237439000,6.37043896484375,0.024715779349207878,0.060337938368320465,0.045539647340774536
1782942163247424000,6.380424072265625,0.025003934279084206,0.022198811173439026,0.041314542293548584
1782942163257408800,6.39040869140625,0.03001522831618786,-0.017351791262626648,0.02286188304424286
1782942163267393800,6.400393798828125,0.028916940093040466,-0.033452730625867844,-0.0018562469631433487
1782942163277378800,6.41037890625,0.020545007660984993,-0.039722293615341187,-0.015144607052206993
1782942163287363800,6.42036376953125,0.006380719132721424,-0.04130500927567482,-0.01824932172894478
1782942163297348900,6.430348876953125,-0.004929720889776945,-0.0351027213037014,-0.018395930528640747
1782942163307334000,6.440333984375,-0.004694297444075346,-0.0043373508378863335,-0.013143113814294338
1782942163317319000,6.45031884765625,0.0007273915689438581,0.03568916395306587,-0.0076305195689201355
1782942163327305000,6.460304931640625,0.010486012324690819,0.058205656707286835,-0.007438505068421364
1782942163337289700,6.470289794921875,0.0260420273989439,0.06226784735918045,-0.0030045146122574806
1782942163347274800,6.480274658203125,0.03915196657180786,0.05209004878997803,0.008311523124575615
1782942163357259800,6.490259765625,0.04946241155266762,0.03048717975616455,0.019490797072649002
1782942163367245000,6.5002451171875,0.055884622037410736,0.009795485064387321,0.02808694913983345
1782942163377229800,6.510229736328125,0.05968840420246124,-0.001398448832333088,0.029928067699074745
1782942163387214800,6.52021484375,0.06462990492582321,-0.0011917874217033386,0.028895294293761253
1782942163397200000,6.530199951171875,0.06661291420459747,0.003342192620038986,0.023152440786361694
1782942163407185000,6.540184814453125,0.06492473185062408,0.008891422301530838,0.018835721537470818
1782942163417170000,6.550169921875,0.05501116067171097,0.008748073130846024,0.01314418576657772
1782942163427154700,6.56015478515625,0.041034091264009476,0.011226942762732506,0.0027717063203454018
1782942163437139700,6.5701396484375,0.029829811304807663,0.01707712560892105,-0.004006044007837772
1782942163447125000,6.580125,0.025698715820908546,0.011089273728430271,-0.008989350870251656
1782942163457110000,6.590110107421875,0.026847129687666893,0.0025483863428235054,-0.012762621976435184
1782942163467094800,6.6000947265625,0.02821466326713562,-0.0018029529601335526,-0.012109615840017796
1782942163477079800,6.610079833984375,0.033001385629177094,0.0024275556206703186,-0.005025247577577829
1782942163487064800,6.62006494140625,0.03982067480683327,0.007264122366905212,0.0024766107089817524
1782942163497049900,6.6300498046875,0.04797932505607605,0.016460344195365906,0.014042019844055176
1782942163507035000,6.640034912109375,0.05862371623516083,0.03720184043049812,0.026837710291147232
1782942163517019600,6.65001953125,0.06698145717382431,0.04468044266104698,0.03341222554445267
1782942163527005000,6.6600048828125,0.0721418634057045,0.03678017854690552,0.02745712921023369
1782942163536991000,6.669990966796875,0.06883370131254196,0.024603378027677536,0.02040686458349228
1782942163546975700,6.679975830078125,0.06621208786964417,0.011373060755431652,0.013288233429193497
1782942163556960800,6.689960693359375,0.06364186853170395,0.00040480494499206543,0.009196088649332523
1782942163566945800,6.69994580078125,0.06191667541861534,-0.0049742478877305984,0.012789491564035416
1782942163576930800,6.709930908203125,0.055900607258081436,-0.007449787110090256,0.017404675483703613
1782942163586916000,6.719916015625,0.048548150807619095,-0.015080010518431664,0.021989040076732635
1782942163596900900,6.72990087890625,0.04019033536314964,-0.024636711925268173,0.020154401659965515
1782942163606886000,6.739885986328125,0.03619026765227318,-0.03064134158194065,0.006478536874055862
1782942163616871000,6.749870849609375,0.035126857459545135,-0.030076591297984123,-0.01168741099536419
1782942163626856000,6.75985595703125,0.04055624082684517,-0.023871958255767822,-0.023320630192756653
1782942163636840700,6.7698408203125,0.04386178031563759,-0.018597595393657684,-0.026295728981494904
1782942163646825700,6.77982568359375,0.043008770793676376,-0.014348254539072514,-0.013910165056586266
1782942163656810800,6.789810791015625,0.034178514033555984,-0.00825427658855915,0.0019977684132754803
1782942163666796000,6.799796142578125,0.023225463926792145,-0.00006612204015254974,0.01795036904513836
1782942163676781000,6.809781005859375,0.01216643676161766,0.007185560651123524,0.016738222911953926
1782942163686765800,6.819765869140625,0.002611014759168029,0.017401713877916336,0.008815052919089794
1782942163696750800,6.829750732421875,-0.006252720952033997,0.014790602028369904,0.0022777514532208443
1782942163706735900,6.83973583984375,-0.011493023484945297,0.01579434610903263,-0.013016249984502792
1782942163716721000,6.849720947265625,-0.013753821142017841,0.02158524841070175,-0.028161421418190002
1782942163726705700,6.85970556640625,-0.011372421868145466,0.018256299197673798,-0.03674132749438286
1782942163736692000,6.86969189453125,-0.0012904852628707886,0.011105525307357311,-0.03427278250455856
1782942163746677000,6.879677001953125,0.017568422481417656,0.001595909707248211,-0.01867225021123886
1782942163756662000,6.889662109375,0.024864904582500458,-0.005767177790403366,0.0032202275469899178
1782942163766646800,6.899646728515625,0.030934514477849007,-0.01081147138029337,0.021103886887431145
1782942163776631800,6.9096318359375,0.03429912030696869,-0.012620927765965462,0.02277490869164467
1782942163786616800,6.919616943359375,0.03063967078924179,-0.006555845029652119,0.011053270660340786
1782942163796601900,6.929601806640625,0.019048888236284256,0.005081857554614544,-0.005834558047354221
1782942163806586600,6.939586669921875,0.0009532407857477665,0.017260227352380753,-0.02150006964802742
1782942163816572000,6.949572021484375,-0.013699250295758247,0.0172983817756176,-0.036457620561122894
1782942163826557000,6.959556884765625,-0.013560764491558075,0.019318923354148865,-0.03800119087100029
1782942163836541400,6.96954150390625,-0.0038785715587437153,0.01294629741460085,-0.02961716055870056
1782942163846526500,6.9795263671875,0.017606213688850403,0.005838054232299328,-0.014789213426411152
1782942163856511200,6.98951123046875,0.03479267284274101,-0.0058519961312413216,0.004564368166029453
1782942163866496300,6.999496337890625,0.04531615227460861,-0.018654610961675644,0.021025100722908974
1782942163876481300,7.009481201171875,0.04280399903655052,-0.02613510936498642,0.03490269556641579
1782942163886466300,7.01946630859375,0.033978283405303955,-0.02607651799917221,0.04302933067083359
1782942163896451300,7.029451416015625,0.021394293755292892,-0.0034859655424952507,0.042790792882442474
1782942163906436000,7.03943603515625,0.004330353811383247,0.032321035861968994,0.03498826548457146
1782942163916421400,7.04942138671875,-0.01053672656416893,0.06219254061579704,0.01533292792737484
1782942163926407400,7.059407470703125,-0.013569802045822144,0.07345558702945709,-0.007864270359277725
1782942163936392200,7.06939208984375,-0.015898998826742172,0.06333163380622864,-0.03172020614147186
1782942163946377200,7.079377197265625,-0.013470993377268314,0.04722216725349426,-0.04579075053334236
1782942163956362200,7.0893623046875,-0.004096974618732929,0.028913278132677078,-0.04459409415721893
1782942163966347300,7.09934716796875,0.0026448178105056286,0.006206633523106575,-0.03323012590408325
1782942163976332500,7.10933251953125,0.006657972000539303,-0.019809117540717125,-0.013267290778458118
1782942163986317300,7.1193173828125,-0.0002020644024014473,-0.039432354271411896,0.0018147225491702557
1782942163996302300,7.12930224609375,-0.011271501891314983,-0.052372999489307404,0.012143464758992195
1782942164006287400,7.139287353515625,-0.025032851845026016,-0.050654731690883636,0.005252535454928875
1782942164016272400,7.1492724609375,-0.033802371472120285,-0.026074204593896866,-0.013690466992557049
1782942164026257200,7.159257080078125,-0.03147796168923378,-0.003476216457784176,-0.03534036874771118
1782942164036242200,7.1692421875,-0.027647830545902252,0.02329092100262642,-0.056064072996377945
1782942164046227200,7.179227294921875,-0.018750475719571114,0.05056621879339218,-0.06359575688838959
1782942164056212500,7.18921240234375,-0.01040865108370781,0.0752686858177185,-0.06853073090314865
1782942164066197500,7.199197509765625,-0.0020292815752327442,0.09195978194475174,-0.0529581643640995
1782942164076182300,7.209182373046875,0.012945638969540596,0.09781886637210846,-0.027830753475427628
1782942164086167300,7.219167236328125,0.023004133254289627,0.0997328832745552,-0.00038980506360530853
1782942164096152300,7.22915234375,0.029621073976159096,0.09022198617458344,0.024009108543395996
1782942164106137300,7.239137451171875,0.031895942986011505,0.06140073016285896,0.03866688162088394
1782942164116122400,7.249122314453125,0.028054380789399147,0.023931846022605896,0.046169448643922806
1782942164126108400,7.2591083984375,0.017147138714790344,-0.015346315689384937,0.035320527851581573
1782942164136093400,7.269093505859375,0.007799623534083366,-0.033528368920087814,0.01643943414092064
1782942164146078500,7.279078369140625,0.0029678503051400185,-0.01711929962038994,0.006542595103383064
1782942164156063200,7.289063232421875,-0.001541913952678442,0.034373559057712555,0.004248660057783127
1782942164166048300,7.29904833984375,0.00038221990689635277,0.06967748701572418,0.017612401396036148
1782942164176033300,7.309033203125,-0.004378211218863726,0.10249101370573044,0.03998890146613121
1782942164186018300,7.319018310546875,-0.02311434969305992,0.10401780158281326,0.06223401799798012
1782942164196003300,7.32900341796875,-0.02705315127968788,0.08747837692499161,0.06805668026208878
1782942164205988400,7.33898828125,-0.02318917214870453,0.06495122611522675,0.05888288840651512
1782942164215973400,7.348973388671875,-0.02262886054813862,0.06081032752990723,0.04386799782514572
1782942164225958400,7.35895849609375,-0.031397316604852676,0.03983793780207634,0.020421529188752174
1782942164235943400,7.368943359375,-0.043633438646793365,0.01749793440103531,-0.0035028052516281605
1782942164245928200,7.37892822265625,-0.044281382113695145,-0.0029876353219151497,-0.026088539510965347
1782942164255913200,7.388913330078125,-0.04995420202612877,-0.024412421509623528,-0.04015408456325531
1782942164265898200,7.398898193359375,-0.06511450558900833,-0.02677278220653534,-0.042159974575042725
1782942164275883500,7.408883544921875,-0.0810772180557251,-0.008935006335377693,-0.037749990820884705
1782942164285868300,7.418868408203125,-0.08498380333185196,0.031076591461896896,-0.013839596882462502
1782942164295853300,7.428853271484375,-0.0813448578119278,0.05995522066950798,0.009933102875947952
1782942164305838300,7.43883837890625,-0.07892084866762161,0.06734922528266907,0.02152584306895733
1782942164315823400,7.4488232421875,-0.08189614862203598,0.0436294823884964,0.014708368107676506
1782942164325809200,7.45880908203125,-0.06664609163999557,0.028197526931762695,0.0005339593626558781
1782942164335794200,7.468794189453125,-0.03989065811038017,0.02279362455010414,-0.010907841846346855
1782942164345779500,7.478779541015625,-0.015959223732352257,0.003610878251492977,-0.016206467524170876
1782942164355764500,7.488764404296875,-0.004157662391662598,-0.013613327406346798,-0.016196899116039276
1782942164365749200,7.498749267578125,0.002012082375586033,-0.0296599380671978,-0.010150724090635777
1782942164375734300,7.508734375,0.005966849625110626,-0.04777372628450394,-0.006275874096900225
1782942164385719300,7.51871923828125,0.004115686286240816,-0.060275666415691376,-0.0029831412248313427
1782942164395704300,7.528704345703125,-0.0011680060997605324,-0.06376685202121735,-0.0017335982993245125
1782942164405689300,7.538689453125,-0.008119922131299973,-0.05628843232989311,0.001839298289269209
1782942164415674000,7.548674072265625,-0.015392208471894264,-0.041593827307224274,0.0034404522739350796
1782942164425659400,7.558659423828125,-0.0242615994066,-0.023788999766111374,0.0005288179963827133
1782942164435644400,7.56864453125,-0.026782065629959106,-0.0019516674801707268,-0.004043396562337875
1782942164445629400,7.57862939453125,-0.028406593948602676,0.01223206240683794,-0.013382037170231342
1782942164455614200,7.5886142578125,-0.025373196229338646,0.021526100113987923,-0.024594314396381378
1782942164465599200,7.59859912109375,-0.016454001888632774,0.024610305204987526,-0.020806768909096718
1782942164475584300,7.608584228515625,-0.012645719572901726,0.02092381939291954,-0.021371401846408844
1782942164485569300,7.6185693359375,-0.010372711345553398,0.018724050372838974,-0.017273595556616783
1782942164495554300,7.62855419921875,-0.008064230903983116,0.053413353860378265,-0.0019719707779586315
1782942164505539300,7.638539306640625,-0.011533531360328197,0.09464015066623688,0.013797137886285782
1782942164515524400,7.6485244140625,-0.006624804809689522,0.1195397824048996,0.013283489271998405
1782942164525510400,7.658510498046875,0.009252961724996567,0.08841754496097565,-0.0225533377379179
1782942164535495200,7.6684951171875,0.003044308628886938,0.023229481652379036,-0.07028502225875854
1782942164545480200,7.678480224609375,-0.005992596037685871,-0.05039200931787491,-0.10937756299972534
1782942164555465200,7.68846533203125,-0.014448631554841995,-0.10235099494457245,-0.1188822090625763
1782942164565450500,7.698450439453125,-0.03950152173638344,-0.13386765122413635,-0.09749622642993927
1782942164575435500,7.708435546875,-0.05655669420957565,-0.12623342871665955,-0.06113487109541893
1782942164585420300,7.718420166015625,-0.0536344088613987,-0.08162415027618408,-0.028624068945646286
1782942164595405300,7.7284052734375,-0.033221520483493805,-0.03182889148592949,-0.0045780036598443985
1782942164605390300,7.738390380859375,-0.007549979258328676,-0.02034853771328926,0.007822472602128983
1782942164615375400,7.748375244140625,0.019402772188186646,-0.040457941591739655,0.017436973750591278
1782942164625360100,7.758360107421875,0.038232918828725815,-0.0583445280790329,0.02997540310025215
1782942164635345200,7.76834521484375,0.04074270650744438,-0.07453332096338272,0.021451473236083984
1782942164645330400,7.778330322265625,0.04223034903407097,-0.08435852080583572,-0.015835179015994072
1782942164655315500,7.7883154296875,0.04668446630239487,-0.06749691069126129,-0.056140318512916565
1782942164665300500,7.798300537109375,0.03702491521835327,-0.031233707442879677,-0.06595885753631592
1782942164675285200,7.80828515625,0.006209449842572212,0.007474725134670734,-0.035146795213222504
1782942164685270300,7.818270263671875,-0.020843472331762314,0.038988444954156876,0.020448025315999985
1782942164695255300,7.82825537109375,-0.043099500238895416,0.049959734082221985,0.06779256463050842
1782942164705240300,7.838240234375,-0.055241648107767105,0.03611103072762489,0.07731042802333832
1782942164715226400,7.848226318359375,-0.04969771206378937,0.015836495906114578,0.05175085738301277
1782942164725211400,7.85821142578125,-0.029865151271224022,0.014237266965210438,0.0004549124278128147
1782942164735196400,7.868196533203125,-0.003542526625096798,0.03676187992095947,-0.0501897856593132
1782942164745181400,7.878181396484375,0.019988898187875748,0.045748986303806305,-0.08234558999538422
1782942164755166200,7.888166259765625,0.033970825374126434,0.03570026904344559,-0.08294051885604858
1782942164765151200,7.898151123046875,0.043005865067243576,0.031593941152095795,-0.04883314669132233
1782942164775136300,7.90813623046875,0.03441157564520836,0.056077949702739716,0.013140279799699783
1782942164785121300,7.918121337890625,0.012176843360066414,0.09935298562049866,0.08478303998708725
1782942164795106300,7.928106201171875,-0.0197393000125885,0.1222548633813858,0.1143956109881401
1782942164805091300,7.93809130859375,-0.04427846521139145,0.16125233471393585,0.13595283031463623
1782942164815076400,7.948076416015625,-0.055020034313201904,0.0715155228972435,0.1454780250787735
1782942164825061400,7.958061279296875,-0.037392836064100266,-0.08547036349773407,0.07285041362047195
1782942164835046400,7.96804638671875,-0.008635777980089188,-0.13189905881881714,0.005698819644749165
1782942164845031400,7.978031494140625,0.01595345512032509,-0.16187453269958496,-0.06030815839767456
1782942164855016700,7.9880166015625,0.012915028259158134,-0.1728595644235611,-0.12126770615577698
1782942164865001700,7.998001708984375,0.0016929998528212309,-0.12185151875019073,-0.15422511100769043
1782942164874986800,8.00798681640625,0.004775889217853546,-0.059418339282274246,-0.1395251452922821
