time,seconds_elapsed,z,y,x
1782942007722538800,0.079538818359375,-0.11033084476590156,0.15519786823540926,0.43683527386412024
1782942007732523800,0.089523681640625,-0.2136164471954107,0.07847790890932083,0.36923670556135474
1782942007742508500,0.099508544921875,-0.2098614785760641,-0.014344751694798468,0.3099555184226483
1782942007752493600,0.10949365234375,-0.15773323193192482,-0.08682488149404526,0.25276248093592
1782942007762478600,0.119478515625,-0.19812018737792966,-0.11097659532353281,0.25545181135144085
1782942007772464600,0.129464599609375,-0.11936872222423553,-0.0952820364549756,0.2977463174518198
1782942007782449700,0.13944970703125,0.07439093185663223,-0.05810439844429493,0.24504109290363266
1782942007792434700,0.1494345703125,0.14307868363559245,-0.03235927794352174,0.1641343311458826
1782942007802419700,0.159419677734375,0.10924889474809168,-0.038206834927946326,0.1713544916577637
1782942007812404700,0.16940478515625,0.1425754102885723,-0.06836699539199471,0.21615243194643408
1782942007822389500,0.179389404296875,0.30381986521184445,-0.08420885377675294,0.20013459594026206
1782942007832374500,0.18937451171875,0.4551940835058689,-0.03184825968146324,0.1572562072710134
1782942007842359600,0.199359619140625,0.5037257669627666,0.02042597130462527,0.10229292899719439
1782942007852344600,0.209344482421875,0.6074246263682842,0.018807868583500385,0.02090989149720408
1782942007862329600,0.21932958984375,0.8042880916833877,-0.04122895922809839,-0.045814688716316596
1782942007872314600,0.229314697265625,0.903742737647891,-0.09278364376798272,-0.048385507318703454
1782942007882299600,0.239299560546875,0.8791413803547621,-0.1347775960192084,0.006467662785790162
1782942007892285700,0.24928564453125,0.8582406311452389,-0.1297339027635753,0.028632702018308916
1782942007902270500,0.2592705078125,0.8796136740416288,-0.10348112500160932,-0.011267576164094498
1782942007912255500,0.26925537109375,0.7976987764209509,-0.1008757648088038,-0.03081174939071061
1782942007922240500,0.279240478515625,0.6397843427032232,-0.12066665308028458,-0.025392576169478705
1782942007932225800,0.289225830078125,0.4731429971724748,-0.18883622620403764,-0.03649938255609013
1782942007942210600,0.29921044921875,0.3537105620622635,-0.2815358449503779,-0.07439671314344741
1782942007952195600,0.309195556640625,0.2615630242407322,-0.31008155595511194,-0.12419574052188545
1782942007962180600,0.3191806640625,0.34883214237093924,-0.2671417011559009,-0.24362704312093555
1782942007972165600,0.32916552734375,0.4005120607256889,-0.167137166223675,-0.3938308293960988
1782942007982150700,0.339150634765625,0.39787469795942304,-0.08947846474274992,-0.4833527314217761
1782942007992135400,0.349135498046875,0.426398197132349,-0.07424918529838323,-0.5107882892275228
1782942008002120400,0.359120361328125,0.42874622156322,-0.09868409998342394,-0.451131948633492
1782942008012106800,0.369106689453125,0.38865503419339653,-0.14276990994736552,-0.3692580406103283
1782942008022091500,0.379091552734375,0.3830792798876762,-0.21892492886707185,-0.29394082422163337
1782942008032076500,0.38907666015625,0.26905776391029357,-0.2868763291954994,-0.1754837186832912
1782942008042061600,0.3990615234375,0.10177753595411777,-0.33899946127310393,-0.03331844183187931
1782942008052046600,0.409046630859375,0.06520107870697975,-0.36813860812634225,0.0287618197071366
1782942008062031600,0.419031494140625,0.03159691526889801,-0.38908188130334015,0.006937261050427332
1782942008072016600,0.4290166015625,-0.015536591827869414,-0.4290069183260202,0.013046254583168774
1782942008082001700,0.439001708984375,-0.020676292803883552,-0.460339337439835,-0.006970058208331465
1782942008091986700,0.448986572265625,0.027118893072009084,-0.47298517626225944,-0.10828728317432106
1782942008101971700,0.4589716796875,0.07475099734067917,-0.4810141689389944,-0.2502232082492672
1782942008111956500,0.46895654296875,0.06168576406240463,-0.458886508283019,-0.38478016552142796
1782942008121942500,0.478942626953125,0.009442366605997085,-0.44446693778634067,-0.48595831081029023
1782942008131927600,0.488927490234375,-0.06714695207774639,-0.4378114254198968,-0.5195478977337479
1782942008141912600,0.49891259765625,-0.04685644372105598,-0.43225656777173277,-0.4981742703154683
1782942008151897600,0.508897705078125,0.024581483548879624,-0.3854441093228757,-0.45714613088909534
1782942008161882600,0.518882568359375,0.10199673166275024,-0.29389351448118683,-0.429764093368873
1782942008171867600,0.52886767578125,0.178007373675704,-0.20886545327603817,-0.36728228355795145
1782942008181852700,0.538852783203125,0.35148879435956476,-0.09111424925103782,-0.30936851231493057
1782942008191837400,0.54883740234375,0.5479045159071684,0.11714198608547448,-0.2985486285443418
1782942008201822500,0.558822509765625,0.6983838311880827,0.3891830035902559,-0.3983264603149146
1782942008211807500,0.568807373046875,0.7646814729601145,0.6714967010453343,-0.6474534160263836
1782942008221792800,0.578792724609375,0.8397831834346056,0.8602177764371037,-1.009344069673866
1782942008231777800,0.58877783203125,0.8752671692699193,0.9307513022132218,-1.254827919642627
1782942008241763600,0.598763671875,0.9080629389345646,0.9340170260109006,-1.3751247164972125
1782942008251748600,0.60874853515625,0.924990692859888,1.0223792000748217,-1.4317568504318594
1782942008261733600,0.618733642578125,0.8141133201271296,1.2858007116638124,-1.4548448805525898
1782942008271718400,0.628718505859375,0.8791413803547621,1.6338098472140727,-1.4902807894624768
1782942008281703700,0.63870361328125,1.0954682555526494,2.0430185707449913,-1.6520647580899297
1782942008291688700,0.648688720703125,1.3270125736266374,2.370298221999407,-1.9550977107077836
1782942008301673700,0.658673828125,1.4584002349466085,2.51745073094517,-2.2118130026564002
1782942008311658500,0.668658447265625,1.150333818206191,2.5764210985690355,-2.478829323866963
1782942008321643500,0.6786435546875,0.5694599296331405,2.5891040545314548,-2.7720281340822575
1782942008331628500,0.688628662109375,0.17617489755153656,2.5479180576622484,-2.9234990907490253
1782942008341613600,0.698613525390625,0.09803659586012363,2.53484171846807,-2.9587264714747668
1782942008351598600,0.7085986328125,0.22556699723005294,2.6760139839604493,-2.9947528936237093
1782942008361584600,0.718584716796875,0.37683717062771316,2.9606314283132553,-3.072965137334168
1782942008371569700,0.728569580078125,0.3896849617630243,3.22506094790101,-3.0485879441857335
1782942008381554700,0.7385546875,0.27607378015220163,3.315035233336687,-2.8452503144204613
1782942008391539500,0.74853955078125,-0.1150742399007082,3.284972395767271,-2.6771666611269116
1782942008401524500,0.7585244140625,-0.46577042257785795,3.1998347367078064,-2.825551634477079
1782942008411509500,0.768509521484375,-0.8281120348632335,3.0212247209638354,-3.0501997632965443
1782942008421494800,0.778494873046875,-1.0049316600590943,2.7434195869743823,-3.1151199792355295
1782942008431479800,0.788479736328125,-1.13422205683887,2.329591679210216,-2.931642065194249
1782942008441464600,0.798464599609375,-1.5744570561438798,1.7847537112668155,-2.3431598935745654
1782942008451449600,0.80844970703125,-2.11364868876338,1.1367502601422368,-1.7488263655781744
1782942008461434600,0.8184345703125,-2.2316133894085883,0.4273270389476791,-1.223955957647413
1782942008471419600,0.828419677734375,-1.97297122105062,-0.15711323687005788,-0.8837037198342382
1782942008481405400,0.838405517578125,-1.7544418673723936,-0.5320595887824893,-0.5544666509017347
1782942008491390700,0.848390625,-1.6399328601390122,-0.8529037270966917,-0.07017930551096796
1782942008501375700,0.858375732421875,-1.6205267334014177,-1.274423723733425,0.5150045552156866
1782942008511360800,0.86836083984375,-1.7193237922400235,-1.9587093253336845,1.0526282078661024
1782942008521345500,0.878345458984375,-1.935165514269471,-2.9285078588217495,1.4200618825934825
1782942008531330600,0.88833056640625,-2.0300673192352057,-3.907217282387614,1.7587654296599327
1782942008541315600,0.898315673828125,-1.8892349532216786,-4.6698917994394895,2.1585558981128035
1782942008551300600,0.908300537109375,-1.5363018052726982,-5.314080222320556,2.6017031316027044
1782942008561285400,0.918285400390625,-1.0905746382921933,-5.833631919446587,3.0746909382134673
1782942008571270700,0.928270751953125,-0.49075171909928317,-6.266536429733038,3.5395758101284502
1782942008581255700,0.938255615234375,0.3191676564693451,-6.168331491568685,4.659942360094189
1782942008591240700,0.94824072265625,1.2045745269596575,-6.861172886198759,5.589816733342409
1782942008601226500,0.9582265625,0.5784639048218727,-7.220662031662464,4.675767997996509
1782942008611211500,0.96821142578125,1.2165683316141367,-7.25770844450891,4.638552366062998
1782942008621196500,0.978196533203125,1.9401538240760563,-7.3590873365342615,4.77273696462512
1782942008631181800,0.988181884765625,2.5781536214500664,-7.443720260941982,4.777628828319907
1782942008641166600,0.99816650390625,2.947121373876929,-7.575182741063832,4.401875361275673
1782942008651151600,1.008151611328125,3.2873891015201804,-7.618589336591959,3.993684728746116
1782942008661136600,1.01813671875,3.509040386611223,-7.623458403933048,3.597221358889341
1782942008671121700,1.02812158203125,3.397218426504731,-7.638371895426511,3.257800311203301
1782942008681106700,1.038106689453125,3.1605928596436974,-7.648940051192045,3.0414532700002193
1782942008691091500,1.048091552734375,3.0361405505448578,-7.658956418293714,2.941830281731486
1782942008701076500,1.058076416015625,2.9075509955108165,-7.57636230623722,2.9215295442417264
1782942008711058200,1.06805810546875,2.732442850407958,-7.551957348299026,3.0321663862168786
1782942008721043500,1.07804345703125,2.4911095442473887,-7.555279770720005,3.091668668760359
1782942008731028200,1.0880283203125,2.449422612118721,-7.521835766279697,3.0641981857717036
1782942008741013200,1.09801318359375,2.487921561861038,-7.324172675019502,2.973628272530436
1782942008750998300,1.107998291015625,2.142190892636776,-6.970651498049497,2.6764883234739303
1782942008760983300,1.1179833984375,1.2355968572109937,-6.549616289255023,2.300961504792422
1782942008770968300,1.12796826171875,0.20918869388103484,-6.384066246092319,2.0433101010374726
1782942008780953000,1.137953125,-0.987310078650713,-6.32567134026885,1.9988984201200306
1782942008790938000,1.147938232421875,-2.0346587386786936,-6.291762056404352,2.085527486781031
1782942008800923400,1.15792333984375,-3.039333209106326,-6.127463474607468,2.1751474058210847
1782942008810908400,1.167908447265625,-4.108692625412345,-5.580449185538291,1.877614950315654
1782942008820893200,1.17789306640625,-4.9912552123874425,-4.770540623624623,1.6608163659527897
1782942008830879200,1.187879150390625,-6.472790239205956,-3.919129253977537,2.1023178780622778
1782942008840864300,1.1978642578125,-8.583161513733863,-3.1241540573015807,2.855534977069497
1782942008850849000,1.20784912109375,-11.181658250510692,-2.5585861666709184,3.3177947611778973
1782942008860834000,1.217833984375,-14.044653480458258,-2.245264459750801,3.074903996442258
1782942008870819300,1.2278193359375,-17.811748590928314,-1.9122275601439176,2.695640475450456
1782942008880804400,1.237804443359375,-22.6692178486824,-1.6379495773673056,2.051513865759224
1782942008890789400,1.247789306640625,-26.442547469627854,-0.9830599469255655,1.2303782457798718
1782942008900774100,1.257774169921875,-29.079388842368125,0.34946181857660413,0.7575668186493217
1782942008910759200,1.26775927734375,-31.601002245950696,1.5377474740363657,1.4200633438982069
1782942008920744200,1.277744140625,-34.31705101091862,2.1567536709964275,2.0158445864848793
1782942008930729200,1.287729248046875,-37.049964401447774,3.704614396637678,1.8612752254113554
1782942008940714200,1.29771435546875,-39.475377192425725,6.423373005086183,1.7140112189151346
1782942008950700300,1.3077001953125,-42.41898266713619,8.489279114943741,1.8274954131454229
1782942008960685300,1.317685302734375,-43.92392078137397,9.696097036916017,2.5528543450206516
1782942008970670300,1.32767041015625,-41.956471538615226,13.291048112785816,3.2549788240417836
1782942008980655000,1.337655029296875,-36.856328666007514,17.52633590454459,2.8479993208676575
1782942008990640000,1.34764013671875,-30.22862668203115,19.17837596658468,2.9962095221728084
1782942009000625200,1.357625244140625,-22.61722813372612,18.346296197134254,4.433856599687039
1782942009010610400,1.3676103515625,-14.5736411144495,16.221417673826217,5.883015251296758
1782942009020595200,1.37759521484375,-6.930121919262409,13.838748630553484,6.988671138864755
1782942009030580200,1.387580322265625,0.08798924909830093,12.126327457308768,7.043271328580379
1782942009040565200,1.397565185546875,4.699962235793471,10.729702418273687,5.04996985168457
1782942009050550300,1.40755029296875,8.209223571678995,9.966215123534202,4.759799741640687
1782942009060536000,1.4175361328125,11.75445930726528,8.364300151622295,4.167015342782437
1782942009070521000,1.42752099609375,13.629661643481255,7.122656415462494,3.3152696266144512
1782942009080506400,1.43750634765625,14.620262580370902,6.441129026529192,2.412523498788476
1782942009090491400,1.447491455078125,14.95293035440445,5.39482841424942,1.4006361743725835
1782942009100476200,1.45747607421875,15.149886174178123,4.45463109216839,0.6993424470871686
1782942009110461200,1.467461181640625,15.439653548640011,4.398024238805473,-0.08588365512117743
1782942009120446200,1.4774462890625,15.708848090672491,4.504723741331696,-0.561261279477924
1782942009130431200,1.48743115234375,15.594329731088877,4.691932950855791,-0.8019090875923633
1782942009140416300,1.497416259765625,15.065658907961845,5.473744714576005,-0.8801508496582507
1782942009150401000,1.507401123046875,14.549056123769283,6.610163989198208,-1.0573457379072904
1782942009160386300,1.51738623046875,14.498117379170655,7.54383833925128,-0.9011924686431885
1782942009170372400,1.527372314453125,14.642660290139913,8.000793587210774,-0.4460317028850317
1782942009180357000,1.537357177734375,14.788206240671872,7.939550306218862,0.1599859792947769
1782942009190342100,1.547342041015625,14.907919830811023,7.654522235238551,0.9744380298569798
1782942009200327200,1.5573271484375,15.092264006292819,7.175154664462805,1.661210479836911
1782942009210312200,1.567312255859375,15.095434453022479,6.765303112983704,2.012900349726528
1782942009220297200,1.577297119140625,15.120094262504576,6.195593592503666,2.31596033648178
1782942009230282200,1.5872822265625,15.163741681051253,5.5113540220022195,2.4581702744588254
1782942009240267300,1.597267333984375,14.972521190059185,5.147208575165272,2.481444474801421
1782942009250252300,1.607252197265625,14.654531929719447,4.888684772489965,2.4073820442467926
1782942009260237300,1.6172373046875,14.33593009043932,4.451267168693244,2.5712410655826328
1782942009270222000,1.62722216796875,13.927586605435609,4.153204551833868,2.773644044846296
1782942009280207000,1.63720703125,13.324299225002527,4.050226992440224,2.8775889879673717
1782942009290193400,1.647193359375,12.792864782381058,3.927501653264463,3.028618922868371
1782942009300178200,1.65717822265625,12.252422857439518,3.8039012848198412,3.0576012717247005
1782942009310163200,1.6671630859375,11.580790839576721,3.7766219404891133,3.1032945168852804
1782942009320148200,1.677148193359375,10.902874042356014,3.574241173057258,3.1874060477674004
1782942009330133200,1.68713330078125,10.338188487517833,3.313495018157363,3.23753873668015
1782942009340118300,1.6971181640625,9.841791456007957,3.1128432664752004,3.28276436432898
1782942009350103000,1.70710302734375,9.503507595658302,2.8524174295708535,3.3156472277551887
1782942009360088300,1.71708837890625,9.260760331046582,2.6057120749831197,3.30681422521919
1782942009370073300,1.7270732421875,9.033961746194958,2.4540876813203094,3.291014014019072
1782942009380058400,1.737058349609375,8.785024394771456,2.3462194272756576,3.267372733929753
1782942009390043100,1.747043212890625,8.575134274622798,2.190657840294391,3.202890032625198
1782942009400028200,1.757028076171875,8.418575931689142,2.0159566685572265,3.0878666461288926
1782942009410014200,1.76701416015625,8.221080013689399,1.7652385711967944,2.991615764641762
1782942009419999200,1.776999267578125,8.083758870667218,1.4800234532117842,2.888154221123457
1782942009429984300,1.786984375,8.032960411322117,1.2488935611575842,2.788224651123583
1782942009439969300,1.79696923828125,8.056821763902903,0.9411042077928781,2.9168080686777826
1782942009449954300,1.806954345703125,8.029270324632526,0.6023613516293466,3.0943951711148023
1782942009459939300,1.816939208984375,7.805883594051003,0.4103500025205314,3.1189190792575476
1782942009469924000,1.826924072265625,7.490220146310329,0.4186152881711721,3.0848861690133806
1782942009479909000,1.8369091796875,7.029872333303094,0.3805009538322687,3.0053143273875116
1782942009489894100,1.84689404296875,6.351089859163761,0.16033844599425792,2.8812428342998024
1782942009499879200,1.856879150390625,5.574174927574396,-0.27243264717087146,2.9045442149102687
1782942009509864400,1.866864501953125,4.712240118086338,-0.8853941571392119,3.29157632407695
1782942009519850200,1.876850341796875,3.5878882978767153,-1.3684429006457328,4.069896738550066
1782942009529835300,1.886835205078125,2.765041636195779,-1.7135213895715773,4.6695784957066175
1782942009539820300,1.8968203125,2.059095260798931,-2.230908309879154,4.9267128898501396
1782942009549805000,1.90680517578125,0.5198141474545002,-3.461590653172135,4.51536671589911
1782942009559790000,1.9167900390625,-3.269090643763542,-4.4449902803808445,3.011219752039015
1782942009569775400,1.926775390625,-8.621202198314666,-4.270962331730127,0.9448184060104191
1782942009579760400,1.936760498046875,-14.338767359691857,-4.228718934762478,-0.5528163994766772
1782942009589745400,1.946745361328125,-19.38209002844691,-6.09088643283844,-0.07766790770068764
1782942009599730200,1.956730224609375,-26.035568258714676,-9.111291654112934,2.601323484635353
1782942009609715200,1.966715087890625,-34.39901267029047,-10.051388146167993,4.078087643790245
1782942009619700200,1.9767001953125,-40.10298068346977,-7.450878900524973,1.9221778762720525
1782942009629686000,1.98668603515625,-41.95723375515938,-1.8216702141232788,-2.330853954230994
1782942009639671300,1.99667138671875,-42.37051411204338,3.2899709347069264,-5.344977464887499
1782942009649656300,2.00665625,-41.844776419758794,4.331047967119515,-6.573465366876125
1782942009659641300,2.016641357421875,-38.39801917858124,3.520970478379726,-7.4024424941360945
1782942009669626000,2.026626220703125,-33.02536986291408,3.7957133021891116,-8.674567877799271
1782942009679611100,2.036611083984375,-26.809559411811826,4.2376752714172,-9.284732158264518
1782942009689596200,2.04659619140625,-20.285876605236528,3.9604999597638844,-9.20352687021792
1782942009699581200,2.056581298828125,-14.521822079885006,3.63725555537492,-9.097785691329836
1782942009709566700,2.066566650390625,-10.254500150483846,3.8715506334617733,-9.111146692684292
1782942009719551700,2.0765517578125,-7.243214055210352,4.125135810691118,-8.86926042881608
1782942009729536800,2.086536865234375,-4.767580897036194,4.057659772789478,-8.54741449304819
1782942009739521800,2.096521728515625,-2.890594600012898,4.063838169163465,-8.101751038953662
1782942009749507600,2.106507568359375,-1.3714385753303766,3.9932898842096325,-7.504441563886403
1782942009759492600,2.11649267578125,-0.08783610436320305,3.7726910307809707,-6.972327906829118
1782942009769478000,2.126477783203125,1.2335294032871722,3.2468288353338837,-6.415159888014197
1782942009779463000,2.136462890625,2.967200285309553,2.6117455099284648,-5.711142434853315
1782942009789447700,2.14644775390625,4.740615733221173,2.2342205031670628,-4.958754626277089
1782942009799432700,2.1564326171875,6.293451324665546,1.995163617505878,-4.418946615324915
1782942009809417700,2.166417724609375,8.013571235719322,1.7119477105140686,-4.062917547187209
1782942009819402800,2.17640283203125,9.693715110215544,1.649111022850871,-3.5579382730320095
1782942009829387800,2.1863876953125,11.176237394505739,1.7628804637633264,-2.852976524758339
1782942009839372500,2.19637255859375,12.604911768752336,1.7209762356221674,-2.0901694673679767
1782942009849357800,2.20635791015625,13.725937074887751,1.2113706168405711,-1.379586225950718
1782942009859344000,2.21634375,14.349202244466543,0.36034912329390645,-0.8905236289821564
1782942009869328600,2.22632861328125,14.995220513123273,-0.2832363652579486,-0.29497878896724433
1782942009879313700,2.236313720703125,15.14286022106409,-0.9845241011939942,0.4278740418385714
1782942009889298700,2.246298583984375,14.945586421382426,-1.7698410965561866,0.9789869253329933
1782942009899283700,2.25628369140625,14.631726223671436,-2.2923763395376504,1.5204028098732232
1782942009909268700,2.266268798828125,14.260091882383822,-2.4836183117091655,1.9000607370100915
1782942009919253800,2.276253662109375,13.70747670456767,-2.359883503229916,1.8332802801571786
1782942009929238800,2.28623876953125,13.293645728063582,-2.030641027469933,1.659076390417665
1782942009939223800,2.296223876953125,13.02757019483447,-1.664135573503375,1.7061796485066414
1782942009949208800,2.306208740234375,12.658326548075674,-1.4006547329425811,1.6790657238706945
1782942009959193600,2.316193603515625,12.399200980114935,-1.2326947060287,1.59317198574692
1782942009969179600,2.3261796875,12.19915187050104,-1.066709267123416,1.5042016166567802
1782942009979165000,2.3361650390625,11.965082417863607,-0.985129812002182,1.4311116843961178
1782942009989149700,2.346149658203125,11.66520047662258,-1.0147855300754307,1.3554225294224918
1782942009999134700,2.356134765625,11.366610328757762,-1.0810112756550312,1.246549336118996
1782942010009119700,2.36611962890625,11.079536431163548,-1.054667677804455,1.1957293225292116
1782942010019104800,2.376104736328125,10.71220300194025,-0.9508831128768622,1.0957022104389964
1782942010029089800,2.38608984375,10.212635523700714,-0.8432047553811222,0.9777449624478817
1782942010039074600,2.396074462890625,9.800330733850597,-0.9247590760610997,0.9568103109687566
1782942010049059600,2.4060595703125,9.294678382739423,-1.0575971553850918,0.8963827302739024
1782942010059044900,2.416044921875,8.735997621273993,-1.1288161061421036,0.9314528015460819
1782942010069030000,2.42602978515625,8.323383034822344,-1.3044459370315074,1.065090433749929
1782942010079014700,2.4360146484375,7.641312625053525,-1.6298875592038033,1.147250392172858
1782942010089000700,2.446000732421875,6.660743837356567,-2.038263631302863,1.0604795789536088
1782942010098985700,2.45598583984375,5.430760728374123,-2.3490165106482803,0.9358311627607792
1782942010108970800,2.465970703125,3.7410727804630994,-2.6315646013811227,0.6506191135156899
1782942010118955500,2.47595556640625,1.2399632357269526,-2.6580992648243904,-0.13587423214949668
1782942010128940800,2.48594091796875,-3.1006162375867365,-1.6286539257556198,-0.7182516571532934
1782942010138925800,2.49592578125,-10.340143128716946,0.18831099675353616,-0.7552755659069865
1782942010148910800,2.505910888671875,-21.81835037665367,1.8041753278344868,-2.045890326789021
1782942010158895600,2.5158955078125,-36.28339433826208,2.389770838101953,-4.50046491484344
1782942010168880600,2.525880615234375,-52.106034812331195,3.333715091626346,-6.417016914057731
1782942010178865700,2.53586572265625,-66.28562400197983,5.385736760777235,-9.042453680208325
1782942010188851700,2.545851806640625,-70.07611284751891,7.938674692428112,-12.349607804906368
1782942010198836700,2.555836669921875,-69.59976024065017,9.869027837979793,-15.139734197998045
1782942010208821800,2.56582177734375,-66.3380953629732,10.69450367912054,-14.755639019066095
1782942010218806800,2.575806884765625,-52.723173023462294,10.098328761041163,-11.654034939485788
1782942010228791800,2.585791748046875,-37.61243812545538,7.544650824677944,-7.5143573932230465
1782942010238776600,2.595776611328125,-25.126260288155077,4.887483287745714,-3.844092717693746
1782942010248761600,2.60576171875,-15.218098709660767,3.0967484562426804,-1.5833721840053796
1782942010258746600,2.61574658203125,-7.737429066506028,2.183089889258146,-0.5909137096155435
1782942010268732000,2.62573193359375,-1.8426807073175906,1.6483895767085253,-0.8124260976925491
1782942010278717000,2.635717041015625,3.1423212898939847,1.4507596570655703,-1.3613172865495085
1782942010288702700,2.64570263671875,6.982524306672811,1.7710162778154015,-2.5485879197478294
1782942010298687700,2.655687744140625,10.469387932789324,2.0019667216494677,-3.3285555169060825
1782942010308672800,2.6656728515625,13.207816871869563,2.470207918255031,-4.225519846460223
1782942010318657500,2.675657470703125,15.426469072896241,2.659194951106608,-4.744346151921153
1782942010328642800,2.685642822265625,16.678265954279897,2.768810925601423,-4.65047632035166
1782942010338627800,2.6956279296875,16.72946305755377,3.529444292214513,-4.9600844135761255
1782942010348612900,2.70561279296875,16.80123766943216,4.507214096842706,-4.962334822851419
1782942010358597600,2.71559765625,16.531418858021496,5.396150602763891,-4.5143926101699465
1782942010368582700,2.725582763671875,15.880609847956896,6.100048228937387,-3.6159327813610433
1782942010378567700,2.735567626953125,15.178784936404227,6.535572566333412,-2.7703575705215333
1782942010388552700,2.745552734375,14.389654666364192,6.916860286629199,-2.1409829781517384
1782942010398538800,2.755538818359375,13.985635474300384,6.909739640969038,-1.5193185217678546
1782942010408523800,2.765523681640625,13.66405958764553,6.441002185279131,-1.0729019112184643
1782942010418508800,2.7755087890625,13.53940211136341,5.880910972493886,-0.716846831856668
1782942010428493800,2.785493896484375,13.513657429254055,5.284397031718492,-0.4802451573278755
1782942010438478600,2.795478515625,13.569065428221226,4.616323583120107,-0.38075843572467566
1782942010448463600,2.805463623046875,13.545972137403487,3.9210941243097186,-0.36450624297335743
1782942010458448600,2.81544873046875,13.501260889017582,3.4873975868627425,-0.43089207448549566
1782942010468433700,2.82543359375,13.393510123872757,3.3190184577539563,-0.5779071477219462
1782942010478419000,2.8354189453125,13.228297349840402,2.9996096860051153,-0.6535542171195149
1782942010488403700,2.84540380859375,13.057106085920333,2.636674199479818,-0.775384507151693
1782942010498389800,2.8553896484375,12.937895184606313,2.28845580509305,-0.7409130593597889
1782942010508374800,2.865374755859375,12.7785007414639,1.982037155559659,-0.7566602251984179
1782942010518359600,2.875359619140625,12.626460752737522,1.8709227592006326,-0.8004661953076719
1782942010528344600,2.885344482421875,12.531475945663452,1.7759350295171141,-0.7267889646783471
1782942010538329900,2.895329833984375,12.337070979416369,1.5493530100256203,-0.5356240032657981
1782942010548315000,2.90531494140625,12.070106972914934,1.3727493656679988,-0.3131528531592339
1782942010558300000,2.9152998046875,11.841342640948294,1.358306122034788,-0.06741670892983674
1782942010568284700,2.92528466796875,11.571810245263576,1.3460484057471156,0.173040654646419
1782942010578269700,2.935269775390625,11.255214485108851,1.234266777651012,0.39129334680773314
1782942010588254700,2.945254638671875,10.974295603013038,1.1314126985065638,0.549686138626933
1782942010598239700,2.95523974609375,10.646364794373511,1.1433745005875826,0.7974487471826374
1782942010608225800,2.965225830078125,10.271386987876891,1.1195331678815186,1.037681544755399
1782942010618210800,2.9752109375,9.994590154147147,1.053912110196799,1.2486962850198149
1782942010628195800,2.98519580078125,9.827774621093273,1.030274191108346,1.5035580580562353
1782942010638180600,2.9951806640625,9.649667878696322,1.0269982381775975,1.7489964614480733
1782942010648165600,3.00516552734375,9.500241871860624,0.9924765215031802,1.9210851125992834
1782942010658150700,3.015150634765625,9.317017640319467,0.9498549388729035,2.0704962141267953
1782942010668135700,3.0251357421875,9.157754714602232,0.9086255412533879,2.22652775670737
1782942010678120700,3.03512060546875,9.083597006979584,0.8748638491660355,2.357795737170428
1782942010688105700,3.045105712890625,8.952723140400648,0.8410935353808104,2.4424049884416164
1782942010698090800,3.0550908203125,8.666997150284052,0.7593005105741322,2.5168121407806874
1782942010708075800,3.06507568359375,8.33855488499105,0.6462696130692959,2.5791619217097757
1782942010718061800,3.075061767578125,8.034829127803444,0.3524211067736149,2.640387667044997
1782942010728046800,3.085046875,7.695782466387748,-0.15966609969064594,2.690190685611963
1782942010738031900,3.095031982421875,7.195163433268666,-0.7501981895774602,2.7866946650773285
1782942010748017000,3.105016845703125,6.455906324422359,-1.4972072277247905,2.924848167270422
1782942010758002000,3.115001953125,5.307043163290619,-2.4006848846957087,2.88848330694735
1782942010767986700,3.124986572265625,3.986179759943485,-3.246097013927996,2.7082322459980843
1782942010777971700,3.1349716796875,2.6798750433027743,-4.028586823040246,2.3758041259393097
1782942010787957000,3.14495703125,0.5758300491869449,-4.468568724367023,1.9285779525727031
1782942010797942000,3.15494189453125,-3.0436066486418247,-3.9824715530753134,1.0691551259055734
1782942010807926800,3.1649267578125,-8.12717248045802,-2.894230618427694,-0.03488485089838505
1782942010817911800,3.174911865234375,-14.228300905847549,-3.3673625096842645,-1.3530597458139062
1782942010827897900,3.18489794921875,-22.788357438325882,-7.5980965836614365,-1.1293018438324331
1782942010837883000,3.1948828125,-33.18869463124275,-11.363614069551229,-0.2542480250522494
1782942010847868000,3.204867919921875,-40.68782990541458,-7.567855759176611,-0.6485661995738744
1782942010857853000,3.21485302734375,-43.97392312190532,3.818036777678132,-2.619424958515167
1782942010867838000,3.224837890625,-44.99766878802776,12.946422189933061,-5.865494207653403
1782942010877823000,3.234822998046875,-45.29281025674343,14.032668443632126,-8.051482740962506
1782942010887807700,3.244807861328125,-42.82751203010082,12.556330985456704,-8.656924084559083
1782942010897792800,3.254792724609375,-35.95467793220281,11.80554184424877,-8.538253865993022
1782942010907777800,3.26477783203125,-27.778694366824624,10.349853206348419,-8.395392624500394
1782942010917762800,3.2747626953125,-20.25430073275566,8.513887486499547,-8.123435047495365
1782942010927748900,3.284748779296875,-13.635144458806513,6.897808380156755,-7.3189961491644375
1782942010937734000,3.29473388671875,-8.646345991921425,5.392151888516545,-6.64402768035531
1782942010947719000,3.304718994140625,-4.856049454084038,4.036409479489922,-6.151700090241432
1782942010957704000,3.314703857421875,-1.9047820664435624,3.206789962673187,-5.765272668969631
1782942010967688700,3.324688720703125,0.27437691310644147,2.7377143610700965,-5.65984654738009
1782942010977673700,3.334673828125,2.1183084972679613,2.149336964999139,-5.699841873160004
1782942010987658800,3.34465869140625,3.7300364226639267,1.389940738965571,-5.576409554758667
1782942010997644000,3.35464404296875,4.9609910070270296,0.8566788617212325,-5.210782929453253
1782942011007628800,3.36462890625,5.784208840107917,0.48739692877866325,-5.104485870248079
1782942011017613800,3.37461376953125,6.466299708142876,0.13108012974075972,-5.0268309681594365
1782942011027600000,3.384599853515625,7.021993562752008,0.1300071667470038,-4.917222592449188
1782942011037585000,3.3945849609375,7.4276868255078785,0.3423359852846712,-4.777898292911052
1782942011047569700,3.404569580078125,7.813492315489054,0.49507652349583803,-4.725704287554324
1782942011057555000,3.414554931640625,8.088757701867818,0.5853626513596624,-4.645516359856725
1782942011067540000,3.4245400390625,8.335583175703883,0.6522600856557488,-4.497319310294092
1782942011077525000,3.43452490234375,8.502565297496318,0.7275250238679349,-4.294143885353208
1782942011087509800,3.444509765625,8.561075938653945,0.7469751358777285,-4.1580175050735475
1782942011097494800,3.454494873046875,8.707094767394661,0.8478880178265273,-4.068640893270075
1782942011107479800,3.464479736328125,8.857197650578618,1.0321487528085709,-3.981092081415653
1782942011117464800,3.47446484375,8.931049653252959,1.092176374400407,-3.9046304807648062
1782942011127449900,3.484449951171875,8.963076776632667,1.0902579735584557,-3.8284938742846246
1782942011137436000,3.494435791015625,9.05691416723728,1.1449503716021776,-3.7721716830819845
1782942011147421000,3.5044208984375,9.124659085208178,1.1735323229640722,-3.595210895849764
1782942011157406000,3.514406005859375,9.14358122782111,1.1604133136719466,-3.573032089528441
1782942011167390700,3.524390625,9.249462691962718,1.1384059183947741,-3.5208562043502925
1782942011177375700,3.534375732421875,9.516015195053816,1.1361457183778285,-3.4022529135406017
1782942011187360800,3.54436083984375,9.80916812030077,1.112050118649751,-3.2627211087316272
1782942011197346000,3.554345947265625,9.905452904057503,1.094239882801473,-3.173202750369906
1782942011207330800,3.564330810546875,9.576410334783793,1.2364927831374108,-3.013166794453561
1782942011217315800,3.57431591796875,8.546735863134264,1.424657539820671,-2.8113685030847786
1782942011227300900,3.58430078125,6.694174982315301,1.076378939679265,-2.3639345321863887
1782942011237286000,3.594285888671875,4.415930774635076,-0.2643283973008394,-1.2886767054915427
1782942011247271700,3.604271728515625,1.9135861351460217,-2.2469936216309665,0.6132783208325505
1782942011257256700,3.614256591796875,-0.714426034450531,-3.8393671504765745,2.7541630993068216
1782942011267242000,3.624241943359375,-3.802145965585112,-3.3671158414468167,3.772931269277632
1782942011277227000,3.63422705078125,-6.484891011366248,-1.3427812206447123,3.2224417053133245
1782942011287211800,3.644211669921875,-8.995752719309925,1.5448324638612567,2.5816838414028287
1782942011297196800,3.65419677734375,-10.639930377411842,3.835218798625469,1.8175109024867415
1782942011307181800,3.664181884765625,-10.672096617001294,5.229641359180212,0.9163404995448887
1782942011317166800,3.674166748046875,-11.201754113078117,5.753742390173674,0.929358532680571
1782942011327151900,3.68415185546875,-11.324524752700329,4.5113370219916105,1.2871210004821418
1782942011337136600,3.69413671875,-9.631144964534045,2.5321084941118954,1.6499636941574514
1782942011347123000,3.704123046875,-7.011161203092336,1.710964983087033,1.5349205800473689
1782942011357108000,3.71410791015625,-4.5589510060817,1.4515681969694791,1.340826141054183
1782942011367092700,3.7240927734375,-2.25523976418972,0.9323031347651034,1.1481213297884911
1782942011377077800,3.734077880859375,-0.10175766220986843,0.4874268124602735,0.9884806568000465
1782942011387062800,3.744062744140625,1.6382564513593911,0.26798494704701004,0.8241345095343887
1782942011397047800,3.7540478515625,3.0188007086873054,-0.061218438811600204,0.7055894517179578
1782942011407033000,3.764033203125,4.0542181079030035,-0.5135646586056798,0.6831101280800997
1782942011417017900,3.774017822265625,4.875750179854035,-0.9069430680591613,0.6560872427284717
1782942011427003000,3.7840029296875,5.506600689995288,-1.2144028241433202,0.6748757490243762
1782942011436988000,3.79398779296875,5.968229190462828,-1.5358502621129155,0.7184196341313421
1782942011446973000,3.803972900390625,6.278392287221551,-1.846410979887098,0.7245210197463631
1782942011456958700,3.813958740234375,6.457934615379571,-2.1578204234451053,0.6932745253503322
1782942011466943700,3.82394384765625,6.6237786730527874,-2.4121125799000263,0.7006905006952583
1782942011476929000,3.833928955078125,6.7091311439067125,-2.636715700533986,0.7807461072500794
1782942011486913800,3.843913818359375,6.710608230721951,-2.9313667553842064,0.8370498129479587
1782942011496898800,3.85389892578125,6.6887652322262525,-3.1491248324289915,0.8430321752931922
1782942011506883800,3.8638837890625,6.714271429404616,-3.272562996049225,0.7771990822929888
1782942011516868900,3.873868896484375,6.671969580247998,-3.41754020678252,0.7277025723919271
1782942011526854000,3.88385400390625,6.586935089302062,-3.595213526198268,0.7178254676304757
1782942011536838700,3.893838623046875,6.634775283363461,-3.7515479972481725,0.6748735570672899
1782942011546823700,3.90382373046875,6.67537792738676,-3.8762954899013042,0.5572235849270597
1782942011556810000,3.91381005859375,6.584363192987442,-3.998912108005583,0.4655797223113477
1782942011566794800,3.923794677734375,6.47151422792077,-4.12808852301687,0.40914490104708817
1782942011576779800,3.93377978515625,6.158315124467015,-4.2100133575096725,0.4129896303091198
1782942011586764800,3.943764892578125,5.698221578481793,-4.162051290634274,0.4233312473097816
1782942011596749800,3.953749755859375,5.342612489321827,-4.143016627557575,0.3500103193048388
1782942011606734800,3.96373486328125,5.07598575195074,-4.2480666093111035,0.3935921252693981
1782942011616720000,3.973719970703125,4.770837853005528,-4.385227593335509,0.47297622577082366
1782942011626705000,3.983704833984375,4.493607888555527,-4.508194632312655,0.5922331947162747
1782942011636690000,3.99368994140625,4.222133126631379,-4.647983626753091,0.6897139102593064
1782942011646675000,4.003675048828125,3.932923386052251,-4.768804009090363,0.7488026435658335
1782942011656660700,4.01366064453125,3.632898821470141,-4.914267249774933,0.8527535049710422
1782942011666645800,4.023645751953125,3.2560996447652575,-4.989433257657289,0.9722392777036875
1782942011676631000,4.033631103515625,2.6419682142347094,-4.86235907562226,1.1580774180702864
1782942011686616000,4.043615966796875,1.712345769920945,-4.691127479691803,1.4242051198780536
1782942011696600800,4.053600830078125,0.2506003161996603,-4.525370515780151,1.4628127906918524
1782942011706585900,4.0635859375,-2.144074222165346,-4.2377880841419096,1.5672081079289317
1782942011716574700,4.07357470703125,-5.030770061174035,-3.944536082434654,1.69242789426893
1782942011726559700,4.083559814453125,-9.14492562816739,-3.3444191487312316,1.7295564324408768
1782942011736544500,4.09354443359375,-14.870827240735291,-1.8375677482180297,1.598377445435524
1782942011746529500,4.103529541015625,-21.380174063444137,0.5897413779005408,1.1183267877664416
1782942011756514600,4.1135146484375,-29.92075432655811,3.486098486962914,-0.18564042583741247
1782942011766500600,4.12350048828125,-38.95395794786214,5.953908988687395,-0.7153455604482442
1782942011776485600,4.133485595703125,-46.4699812284708,7.679657845538854,-0.7325668174274266
1782942011786470700,4.143470703125,-52.15303504843712,10.345555801415443,-1.9475477337196467
1782942011796455700,4.15345556640625,-53.95019202194214,13.435921863144635,-3.398483039613068
1782942011806440700,4.163440673828125,-52.586240587496754,15.490075575888156,-4.530488297185301
1782942011816425500,4.173425537109375,-48.54583356280327,16.155340981328486,-5.094444368705153
1782942011826410500,4.183410400390625,-42.29571401486397,15.92858740466237,-5.278783283489942
1782942011836395500,4.1933955078125,-34.29364207828045,14.324360064154863,-4.294732791157067
1782942011846380800,4.203380859375,-25.71136903781891,12.20010464118123,-2.7343229650661347
1782942011856365600,4.213365478515625,-17.791901734685897,10.029619381952285,-1.5619479954436422
1782942011866351600,4.2233515625,-10.648789391171931,7.989588887107372,-1.0053296464007346
1782942011876336600,4.233336669921875,-4.077883061128855,6.52882659920454,-1.0561951065674424
1782942011886321700,4.24332177734375,1.5474299330085515,5.507347708970308,-1.4699125396944581
1782942011896306400,4.253306396484375,5.870784715276956,4.687221412163972,-2.3169417487345636
1782942011906291700,4.263291748046875,9.130245360907912,4.4999519968852395,-3.135206781713664
1782942011916276700,4.27327685546875,11.49539219149351,4.7553500687554475,-3.6364544681251045
1782942011926261800,4.28326171875,13.12619189710617,4.852391223837435,-3.8211125318616626
1782942011936246500,4.29324658203125,14.027601807892323,5.0378129654228685,-4.0062265226721765
1782942011946231600,4.3032314453125,14.577267488253115,5.314246226537227,-4.265831106321514
1782942011956217600,4.313217529296875,14.808025039863585,5.746804699864983,-4.465512259405851
1782942011966202600,4.32320263671875,14.84080502743721,5.984862345355749,-4.457156226731836
1782942011976187600,4.333187744140625,14.927529371166228,5.9276773998439305,-4.134006514889002
1782942011986172700,4.343172607421875,14.9155723913908,5.9226727234244345,-3.4693989888355135
1782942011996157700,4.35315771484375,14.73783798943758,5.911830426892638,-2.6338588497981426
1782942012006142700,4.363142822265625,14.473952075207233,5.889886306110024,-1.8427616635993123
1782942012016127500,4.37312744140625,14.177947852182388,5.947344807866215,-1.06703294611983
1782942012026112500,4.383112548828125,13.85854171078205,5.92900192644596,-0.3437046432893723
1782942012036097500,4.39309765625,13.510614408296346,5.75902646805644,0.26965572980344293
1782942012046082600,4.40308251953125,13.195185353833436,5.532000504189729,0.8054683875091373
1782942012056068600,4.413068603515625,12.88044018998146,5.348448940390348,1.2054420305091886
1782942012066053600,4.4230537109375,12.680478758651017,5.20360967682302,1.4870447301506995
1782942012076038700,4.43303857421875,12.51805064690113,4.933241414836049,1.7578402776390314
1782942012086023700,4.443023681640625,12.462315315675735,4.590364089216291,1.8613959291815756
1782942012096008400,4.453008544921875,12.552765401929616,4.22931105543673,1.9494290174216031
1782942012105993500,4.462993408203125,12.657227646923065,3.9818990138843655,2.0689298415929076
1782942012115978800,4.472978759765625,12.675864542853832,3.9346839659839867,2.171482161311805
1782942012125963800,4.4829638671875,12.648410718739033,3.755454357036948,2.274578670910001
1782942012135948500,4.492948486328125,12.627547963452338,3.5092075598716734,2.3841652731798586
1782942012145933600,4.50293359375,12.528379148691892,3.3434660857900975,2.41251107769832
1782942012155919600,4.512919677734375,12.356645448458194,3.2001267053917046,2.309852228865027
1782942012165904600,4.522904541015625,12.178925075030326,3.011600568050146,2.2528895478017628
1782942012175889400,4.532889404296875,11.965550035375356,2.702998144736886,2.08075004324615
1782942012185874700,4.542874755859375,11.692512846440076,2.445803837099671,1.905562110905349
1782942012195859700,4.552859619140625,11.411157911014556,2.23733585870862,1.7874097787335514
1782942012205844700,4.5628447265625,11.062959390372038,2.069626883946359,1.8457437481500207
1782942012215829500,4.57282958984375,10.801118133711814,2.007085379837453,1.9501926952704787
1782942012225814500,4.582814453125,10.489511852407455,2.164370137349516,2.0970169951751827
1782942012235799600,4.592799560546875,10.057115291643143,2.251732778982073,2.2255733785919842
1782942012245784600,4.60278466796875,9.713145202350615,2.210533776500821,2.3535712513431903
1782942012255769600,4.61276953125,9.476534833058714,2.1239368585437535,2.4651772306114434
1782942012265755600,4.622755615234375,9.20315160716474,2.006218826135993,2.5152692952528595
1782942012275740700,4.63274072265625,9.03677388100624,1.8709538849912584,2.486279347611964
1782942012285725700,4.6427255859375,8.975314326915145,1.714567245362699,2.4208288241885603
1782942012295710500,4.65271044921875,8.874301345592738,1.5232001855067907,2.3289542580895124
1782942012305695500,4.662695556640625,8.884511773961782,1.286050448641181,2.2713560556016863
1782942012315680500,4.672680419921875,8.89714212295413,1.0055135516002773,2.1788627730824053
1782942012325665800,4.682665771484375,8.869739736765622,0.7379550863370299,2.100465820454806
1782942012335650600,4.692650634765625,8.80081408457756,0.5080455298580229,2.0840556606628
1782942012345635600,4.702635498046875,8.467852880555391,0.22182518035322427,2.0930564209811386
1782942012355620600,4.71262060546875,8.186810079818963,-0.07056421317532659,2.0606144331902265
1782942012365606700,4.722606689453125,7.933236885288357,-0.14113704804852603,1.9316174663990735
1782942012375591400,4.73259130859375,7.369747846758365,-0.295273278401792,1.8460118975669144
1782942012385576700,4.74257666015625,6.799173233881592,-0.6641895929023623,1.8729009274058044
1782942012395561700,4.752561767578125,6.053767539277672,-1.2509857111312448,1.9309831140182911
1782942012405546800,4.762546630859375,4.93560697492361,-1.9525445190936326,1.848873424477875
1782942012415531500,4.772531494140625,3.5855420270115137,-2.6724761652231215,1.4592089209809898
1782942012425516500,4.7825166015625,1.2873498408019541,-3.5683208430975673,0.8534399528652429
1782942012435501600,4.79250146484375,-2.27402103702724,-4.586381157059967,-0.014529606742411851
1782942012445486600,4.802486572265625,-7.029061016920209,-4.643936397188901,-1.2345081851914523
1782942012455471600,4.8124716796875,-13.917143537354468,-4.4573768837451935,-2.9180878793552516
1782942012465457700,4.822457763671875,-22.52438501485586,-6.589193097361922,-3.9361709896713495
1782942012475442700,4.832442626953125,-32.598110080516335,-10.109566778892278,-2.732570860701799
1782942012485427700,4.842427734375,-42.812627764701844,-9.487485850661992,-1.6202448477201163
1782942012495412500,4.85241259765625,-51.097514772391314,-2.849834719601273,-1.9044784073218701
1782942012505397500,4.8623974609375,-56.8579499382019,4.35846350505054,-3.0682284642010926
1782942012515382500,4.872382568359375,-60.8348451524496,7.098178392288088,-3.623357086142897
1782942012525367600,4.882367431640625,-61.57501353092193,7.078563006713986,-3.8898759792253372
1782942012535352800,4.892352783203125,-57.82260277936458,7.739772414761781,-4.8835509167328475
1782942012545337600,4.902337646484375,-51.02802681014538,7.624244585874676,-6.378838282310962
1782942012555322600,4.912322509765625,-43.47667268843651,6.482625989043712,-7.43801708086431
1782942012565308700,4.92230859375,-35.51960426118374,5.063069571754336,-7.484184373277425
1782942012575293400,4.93229345703125,-27.491037116384504,4.593028632250428,-7.101290386828779
1782942012585278500,4.942278564453125,-20.648240429353713,5.116784210807085,-6.3120543183267115
1782942012595263700,4.952263671875,-14.2472277246356,5.179334482744336,-5.067455239492655
1782942012605248800,4.962248779296875,-7.9319415847808115,5.295235236597061,-3.488180261673033
1782942012615233500,4.972233642578125,-2.1769699450731275,5.052034382998943,-2.482906364047527
1782942012625218600,4.982218505859375,2.981635053375363,4.4702334427088495,-2.4364082322448493
1782942012635203600,4.99220361328125,7.339345694231986,3.6872298388555644,-3.365554583479464
1782942012645188600,5.002188720703125,11.289378620517253,2.696292801879346,-4.217812340822816
1782942012655173600,5.012173583984375,14.279600884974002,2.5857009680896996,-5.169564783880114
1782942012665159700,5.02215966796875,16.52548128466606,3.511214808040857,-5.940337559452653
1782942012675144700,5.032144775390625,17.864850066518784,4.5906776852101085,-6.086401980900764
1782942012685129700,5.042129638671875,17.944468962156773,5.567663353723288,-5.9086740086883305
1782942012695114500,5.052114501953125,17.267407904982566,6.13275573579669,-5.646583161181211
1782942012705099500,5.062099609375,16.81774807472825,6.130244629758596,-5.283995465180277
1782942012715080700,5.072080810546875,16.557409039324522,6.151393800771236,-4.835316462656856
1782942012725066000,5.08206591796875,16.11214247559309,6.3296618712097406,-3.976944898608327
1782942012735051000,5.092051025390625,15.790402922809124,6.228133341580629,-3.0664900961011647
1782942012745035800,5.102035888671875,15.58527548701763,5.985343991392851,-2.1077640146389602
1782942012755020800,5.112020751953125,15.604546004676818,5.630936679238081,-1.233793753311783
1782942012765006800,5.1220068359375,15.6334120336771,5.2494472988903516,-0.5546315591398626
1782942012774992000,5.131991943359375,15.443768582743406,4.727940668304265,0.05125149120907299
1782942012784977000,5.141976806640625,15.116666626143454,4.09426720969677,0.6864252439774573
1782942012794962000,5.1519619140625,14.660693959480524,3.5728728073135017,1.253810997685045
1782942012804947000,5.161947021484375,14.209556457889079,3.2463834296539424,1.722022383674234
1782942012814932000,5.171931884765625,13.606854768389463,2.94161751576364,2.1150920194394884
1782942012824916700,5.181916748046875,13.06591483079791,2.733408188308775,2.32016509469524
1782942012834901800,5.19190185546875,12.590414456844329,2.588785490101576,2.434704058675468
1782942012844886800,5.20188671875,12.097695237064361,2.3733202001690863,2.5212100834786892
1782942012854872800,5.211872802734375,11.702359702193736,2.061291455668956,2.537704706683755
1782942012864857900,5.22185791015625,11.468403646802901,1.7778674588844179,2.508904436396062
1782942012874843000,5.2318427734375,11.149878964412212,1.4665509543068707,2.2432539967112244
1782942012884828000,5.241827880859375,10.83208493438363,1.180408638474345,2.074560979347676
1782942012894813000,5.25181298828125,10.604520041334629,0.8867280360914767,2.0101148106612263
1782942012904797700,5.261797607421875,10.360740511065721,0.6394843368433416,1.988876792321354
1782942012914782700,5.27178271484375,10.112482374078034,0.5024631996810436,2.0218328671142456
1782942012924768000,5.28176806640625,9.829740952730178,0.43285760240480303,2.087944923186302
1782942012934753000,5.2917529296875,9.387402259144187,0.394890713712573,2.1501807223469016
1782942012944737800,5.30173779296875,8.855465712219477,0.4610775885865092,2.1799241187036036
1782942012954722800,5.311722900390625,8.335296175456046,0.46516142383404074,2.2181918900385496
1782942012964708900,5.321708984375,7.917231506904959,0.33472485269382596,2.206884021821618
1782942012974694000,5.33169384765625,7.592060226106644,0.22579707965888082,2.1460519519791004
1782942012984678700,5.3416787109375,7.47988579930067,0.16147490267828105,2.0580726397529245
1782942012994664000,5.351663818359375,7.4747653875470155,0.004449965146183967,1.8889473684519529
1782942013004649000,5.36164892578125,7.536641121223568,-0.2601442434839904,1.7682395065784453
1782942013014634000,5.371634033203125,7.547832961845398,-0.5273363596528768,1.6961059982597826
1782942013024618800,5.38161865234375,7.4410729613035915,-0.7657990788131952,1.5533071544788777
1782942013034603800,5.391603759765625,7.26347007677555,-0.9369361283279954,1.4734116338565946
1782942013044588800,5.4015888671875,7.116286295908689,-1.0264606972347945,1.4718360551029444
1782942013054574800,5.411574951171875,6.903423297429084,-1.1910489096280186,1.5321454162456094
1782942013064559900,5.421559814453125,6.700766635665297,-1.4321861817598343,1.6160802753865717
1782942013074545000,5.431544921875,6.390978801959752,-1.6620928156293928,1.6847572135105728
1782942013084530000,5.441530029296875,5.806837436023354,-1.8437872072547674,1.668785883527249
1782942013094515000,5.451514892578125,5.17770308215022,-2.1457954930000005,1.5796856044471264
1782942013104499700,5.461499755859375,4.460526872208714,-2.572497787645459,1.477914498233795
1782942013114484700,5.471484619140625,3.4038907438755035,-2.9682527169719335,1.1808426459774375
1782942013124469800,5.4814697265625,2.0921225011318922,-3.31038594622612,0.7995984725624322
1782942013134455000,5.491455078125,-0.19153613281249998,-3.7828432992219923,0.3663713061928749
1782942013144439800,5.501439697265625,-4.613529568487405,-3.9540000763505696,-0.045817309931665655
1782942013154425900,5.51142578125,-11.448590692830084,-4.176383182847499,-0.032643647842854256
1782942013164411000,5.521410888671875,-21.2906510289073,-6.89156860898435,0.8533199797473847
1782942013174396000,5.53139599609375,-31.507885570836066,-12.327567822533846,2.6269734741985795
1782942013184380700,5.541380615234375,-41.21616755106449,-13.863828126752376,3.8685023518070576
1782942013194365700,5.55136572265625,-48.85763624346256,-7.916023884680866,2.4671634359925982
1782942013204351000,5.56135107421875,-51.33477454550266,0.3424633745240047,1.121603106023371
1782942013214336000,5.5713359375,-50.97301628606319,3.692549572573602,3.0945980002105236
1782942013224320800,5.58132080078125,-48.90040454108715,3.277940012912452,4.661503910322487
1782942013234305800,5.591305908203125,-44.056097547245024,4.567032897989452,4.780433072085678
1782942013244290800,5.601290771484375,-38.41111948317289,6.54398851250112,4.056471147526801
1782942013254275800,5.61127587890625,-34.43026588668823,7.6815096108853815,2.454877662654221
1782942013264262000,5.621261962890625,-31.723052754604815,8.10663939551711,0.6482338988795876
1782942013274247000,5.631246826171875,-29.447146634483335,8.295960190367698,-0.7797237784650176
1782942013284232000,5.64123193359375,-26.87458630299568,8.438588792148233,-2.0423130528241393
1782942013294217000,5.651217041015625,-22.891883279252053,9.479868361395598,-3.7970129866108295
1782942013304201700,5.66120166015625,-18.133295251488686,10.077957004141807,-5.094938289701938
1782942013314186800,5.671186767578125,-12.870360694515705,9.312410438784957,-5.90748099951148
1782942013324171800,5.681171875,-6.949077379623055,7.6770158065974705,-5.995047054761648
1782942013334156800,5.69115673828125,-1.3529326123028993,6.098348439282178,-5.961318972682952
1782942013344142000,5.70114208984375,2.941424039018154,4.937985979014635,-6.385988738587498
1782942013354128000,5.7111279296875,6.294552563905715,4.226439591653644,-6.871230169832706
1782942013364113000,5.72111279296875,8.715530587306619,3.5994013332769272,-7.423886264181137
1782942013374098000,5.731097900390625,10.281726011061668,3.3521497429832814,-7.878375414288043
1782942013384082700,5.741082763671875,11.018936708772182,3.5851962823137637,-8.17609228644967
1782942013394067700,5.751067626953125,11.173760190737246,3.740206226761639,-7.92562348767519
1782942013404053000,5.761052978515625,10.906505092334747,3.9388112750470636,-7.558039883083104
1782942013414038000,5.7710380859375,10.407676449763775,4.489383548858761,-7.313392922329903
1782942013424023000,5.78102294921875,9.826112240839004,4.878132691076398,-6.768784525358677
1782942013434007800,5.7910078125,9.550709491816162,5.204137500089407,-6.273695653837919
1782942013443992800,5.800992919921875,9.525261746826768,5.595699361640214,-5.7134770152807235
1782942013453979000,5.810978759765625,9.62154886867106,5.813412138238549,-5.002023859161138
1782942013463963600,5.820963623046875,9.693547936955094,5.819669445067643,-4.250914399957656
1782942013473949000,5.830948974609375,9.857741889333724,5.779383611908555,-3.4982249780863524
1782942013483934000,5.840933837890625,10.064083961611985,5.718464740565419,-2.789235873992741
1782942013493919000,5.8509189453125,10.159626402568817,5.653718419888615,-2.2546853451773523
1782942013503903700,5.86090380859375,10.266561175155639,5.579904411137104,-1.8119936003699897
1782942013513888800,5.870888671875,10.375609578895569,5.4677989579141135,-1.4551570152416824
1782942013523873800,5.880873779296875,10.48629347488284,5.254762356433272,-1.1995319296825677
1782942013533858800,5.89085888671875,10.58250928505659,5.011930336147547,-0.9654744597438722
1782942013543843800,5.90084375,10.728815114045142,4.8931315227657555,-0.77605714571625
1782942013553830000,5.910829833984375,10.916492233341932,4.78597813899219,-0.5601139360737055
1782942013563815000,5.92081494140625,10.924954941260815,4.579384722301364,-0.38165991460904475
1782942013573800000,5.930800048828125,10.952739604765176,4.427816442739963,-0.27062852035835383
1782942013583784700,5.94078466796875,10.999224292564392,4.341593034270406,-0.13289667764343321
1782942013593769700,5.950769775390625,10.969862589001655,4.308776806339622,-0.024626272538676858
1782942013603754800,5.960754638671875,10.926446641123293,4.228366468062997,0.06362630367092788
1782942013613740000,5.970739990234375,10.912826112049817,4.1571681947678325,0.13607581913620231
1782942013623725000,5.98072509765625,10.810346565306187,4.115055730703473,0.1442557645909488
1782942013633709800,5.990709716796875,10.700567509204149,4.1380934919416905,0.14381101649813352
1782942013643694800,6.00069482421875,10.577587610745429,4.156393118742108,0.13165277852956206
1782942013653681000,6.010680908203125,10.421386995208263,4.129996694725752,0.07378357708062976
1782942013663665700,6.020665771484375,10.251992551577091,4.143082386270165,0.03947020592726767
1782942013673650700,6.030650634765625,10.020150127339363,4.188832914575934,0.017276896156556903
1782942013683636000,6.040635986328125,9.856078340035676,4.191389613321423,0.08066659632632509
1782942013693621000,6.05062109375,9.72874959871769,4.166579581713676,0.2333992617582902
1782942013703606000,6.06060595703125,9.566465863874553,4.13923155606091,0.37195816641449925
1782942013713591300,6.07059130859375,9.41566856868565,4.068467582529783,0.6509067713506519
1782942013723576300,6.080576416015625,9.277444339343905,3.9564015845343468,0.9495040796086192
1782942013733561600,6.0905615234375,9.089192635029553,3.8600726693749428,1.2947814521074295
1782942013743546400,6.10054638671875,8.805909361889958,3.7172526366755365,1.5183184048146008
1782942013753532400,6.110532470703125,8.535446991878747,3.5754128471851345,1.736146478355676
1782942013763517400,6.120517333984375,8.28010444958806,3.3688583011999724,1.940741853097081
1782942013773502500,6.13050244140625,7.829924979373812,2.9309225187480448,2.184330536969006
1782942013783487200,6.1404873046875,7.316427175459265,2.2010218517899514,2.5894050833046434
1782942013793472300,6.15047216796875,6.897226780876517,1.4057438727751372,2.998577420347929
1782942013803457500,6.16045751953125,6.587072451946139,0.4469757057368755,3.416937272453308
1782942013813442600,6.170442626953125,6.157475166511535,-1.4435487027734517,3.731431091892719
1782942013823427300,6.18042724609375,5.213573436954618,-4.558977309566736,3.7719881432086226
1782942013833412400,6.190412353515625,2.6594103474229573,-7.6160530961126085,2.945722612994909
1782942013843397400,6.2003974609375,-1.516758900412917,-8.831619557207823,1.5529368598617612
1782942013853383400,6.210383544921875,-5.218151412394643,-7.7989131705164905,0.9483572476610541
1782942013863368400,6.220368408203125,-10.265264705604315,-8.681642346230149,0.7831696080699563
1782942013873353500,6.230353515625,-20.501048465180396,-11.922812132889032,1.5623609601587056
1782942013883338500,6.24033837890625,-30.949335157752035,-11.67240061725974,0.9949015566930174
1782942013893323500,6.250323486328125,-36.37196577116251,-4.977655726101994,-3.0388515630692243
1782942013903308300,6.260308349609375,-36.85110070222616,5.815003791344165,-7.447222716104984
1782942013913293300,6.270293212890625,-33.49866425125599,13.952156398546695,-10.063549708604812
1782942013923278300,6.2802783203125,-33.09110051845312,13.358093942576646,-9.97602690797448
1782942013933263400,6.290263427734375,-30.479893937706944,9.041057257413863,-8.214017235696316
1782942013943248400,6.300248291015625,-24.631291828143596,6.6016515969187015,-6.536887156063318
1782942013953234400,6.310234375,-19.202879124200344,4.539186567425728,-5.623877992898225
1782942013963219500,6.320219482421875,-14.644508548355102,2.4161611246384678,-5.475011373510957
1782942013973204500,6.33020458984375,-10.694113218498229,0.7912377637133002,-5.051338801950216
1782942013983189200,6.340189208984375,-7.389137022361159,-0.7642972959481179,-4.4320363985225555
1782942013993174300,6.35017431640625,-4.771780686813592,-2.3711662370055913,-3.985681747293472
1782942014003159300,6.3601591796875,-2.5528099213570354,-3.682005089944601,-3.828806593495607
1782942014013144600,6.37014453125,-0.622089696058631,-4.364713213095069,-3.791545661115646
1782942014023129300,6.38012939453125,0.9933435135960579,-4.467079362592101,-3.9435599308788776
1782942014033114400,6.3901142578125,2.0772668773055076,-4.3798070295915,-4.209527619819343
1782942014043099400,6.400099365234375,2.8031162230461835,-4.312282476373016,-4.06618999298662
1782942014053085400,6.41008544921875,3.224565857860446,-4.368959180101752,-4.006173915702104
1782942014063070200,6.4200703125,3.563459959062934,-4.40419240604639,-4.0707109775424
1782942014073055500,6.430055419921875,3.7233249423265455,-4.312451110938191,-3.884790054263174
1782942014083040500,6.44004052734375,3.757884214532375,-4.0052065319746735,-3.7426468979120253
1782942014093025500,6.450025634765625,3.880750715744495,-3.610467209431529,-3.5793054707095027
1782942014103010300,6.46001025390625,4.162761484730243,-3.3596918289259072,-3.327079306873679
1782942014112995300,6.469995361328125,4.210556670606136,-3.1535286203458903,-3.093267336128652
1782942014122980400,6.47998046875,3.9685336286157367,-2.9205466706842182,-2.927093608109653
1782942014132965400,6.48996533203125,3.5821190668255087,-2.7616701139360664,-2.811997448638081
1782942014142950400,6.499950439453125,3.0890216613829136,-2.693974588064849,-2.796415848624706
1782942014152936400,6.5099365234375,2.468793667542934,-2.527478203962743,-2.8738354806527493
1782942014162921500,6.51992138671875,2.3266280070990324,-2.3285411472439765,-2.902704140001535
1782942014172906500,6.529906494140625,2.1905793682307,-2.1798127672836185,-2.6376284314647314
1782942014182891300,6.539891357421875,1.835413931185007,-2.0906229102239013,-2.2680720654949544
1782942014192876300,6.549876220703125,1.667104360181093,-2.0355469196900726,-2.058951030022651
1782942014202861300,6.559861328125,1.2334452321350573,-1.9822268329128623,-1.611916287574917
1782942014212846300,6.569846435546875,0.5400210691809654,-1.817977935476601,-1.0178595306932925
1782942014222831400,6.579831298828125,-0.12409808883368968,-1.6031510895781218,-0.4398319714620709
1782942014232816400,6.58981640625,-0.6689794575273991,-1.4633717397488653,0.024524346534162758
1782942014242801400,6.599801513671875,-0.8940531182825565,-1.2937472867541013,0.37037352757155895
1782942014252787500,6.609787353515625,-0.9634306058913469,-0.9791339325882494,0.5599330996140838
1782942014262772200,6.619772216796875,-0.9923439811646938,-0.6723054601449518,0.6520701891068369
1782942014272757200,6.62975732421875,-1.053403722283244,-0.34409240049794315,0.6683610333681106
1782942014282742500,6.639742431640625,-1.0894336515635252,-0.06281357621566858,0.6067877897694707
1782942014292727600,6.6497275390625,-1.034768579918146,0.008910106909798923,0.43395807445999235
1782942014302712300,6.65971240234375,-0.9938117156296968,0.12488584167789667,0.41602739056982097
1782942014312697300,6.669697265625,-0.9806956289470196,0.32198380986861885,0.4365049459312111
1782942014322682400,6.679682373046875,-0.8116554055809975,0.4937895889578387,0.4945983845900744
1782942014332667400,6.68966748046875,-0.7118874558836221,0.5999599895760417,0.5691708835586905
1782942014342652400,6.69965234375,-0.5122434199392796,0.6658900401446968,0.5638786223694682
1782942014352638500,6.709638427734375,-0.29649989758729933,0.7179182604804635,0.31266755386032163
1782942014362623500,6.71962353515625,-0.5604822579294443,0.9236372324243187,0.07163929506093263
1782942014372608500,6.7296083984375,-0.5266320107758045,1.1073168065175414,-0.24183533739857374
1782942014382593300,6.73959326171875,-0.400133290541172,1.0665485966689885,-0.4469817336188629
1782942014392578300,6.749578369140625,-0.2823030299305916,0.9294345205262303,-0.1292589239292778
1782942014402563300,6.759563232421875,0.053576107364892954,0.7871094317369163,0.4860937006929889
1782942014412548400,6.76954833984375,0.3269476428210735,0.8016718447703868,0.8346354452826082
1782942014422533600,6.77953369140625,0.49940615019798273,0.8702695801783352,0.9858155292440205
1782942014432518400,6.789518310546875,0.5601835672438145,0.8023423644430935,0.996234997253865
1782942014442503400,6.79950341796875,0.5637210937201976,0.6195927646763623,0.8043982740595936
1782942014452489500,6.809489501953125,0.5329267270058393,0.4757046643540263,0.5899995904453098
1782942014462474200,6.81947412109375,0.4883604400485754,0.421192006791383,0.5458700509374961
1782942014472459300,6.829459228515625,0.48392917960286136,0.33276378175392746,0.5271767486443742
1782942014482444300,6.8394443359375,0.498933856511116,0.19571385688856244,0.4382475518148392
1782942014492429600,6.8494296875,0.48505087710916994,0.04475684109330177,0.3821030552666634
1782942014502414600,6.85941455078125,0.4401975899040699,-0.042361908780783414,0.3959719696106389
1782942014512399400,6.8693994140625,0.4496843801736831,-0.03139876234829426,0.40153493750002234
1782942014522384400,6.87938427734375,0.5129173736780882,0.06852803117260337,0.3935876682899892
1782942014532369400,6.889369384765625,0.5146908130913973,0.18763064980655908,0.45934751339089125
1782942014542355200,6.899355224609375,0.5155880541920662,0.23553499514535067,0.48414158024452625
1782942014552340500,6.909340576171875,0.5096919818907976,0.20626973769441245,0.42670393861327316
1782942014562325500,6.919325439453125,0.46025487402677534,0.16186843204051254,0.36636900463793426
1782942014572310500,6.929310546875,0.4451812235355377,0.12734817667081952,0.39643958712238814
1782942014582295300,6.93929541015625,0.5041308406323194,0.1371462248466909,0.42425716651566325
1782942014592280300,6.9492802734375,0.6115776543945074,0.12843918677791952,0.4092549007602036
1782942014602265300,6.959265380859375,0.6320481954932212,0.11792188441678882,0.43975196502842007
1782942014612250400,6.96925048828125,0.559096941050887,0.0957451239220798,0.5351316166389734
1782942014622235400,6.9792353515625,0.5146709393471479,-0.0020791443616151807,0.5999776713632047
1782942014632220400,6.989220458984375,0.6147329035550355,-0.09296119229197501,0.5677815480921418
1782942014642205400,6.999205322265625,0.6904536227107048,-0.08961246638596057,0.469198387732543
1782942014652191500,7.00919140625,0.5648644185364246,-0.07113865206241607,0.4020391241624951
1782942014662176300,7.01917626953125,0.3825461959242821,-0.1159836098305881,0.4167615500632673
1782942014672161300,7.029161376953125,0.27589491645395753,-0.19499416431188582,0.34072372778244314
1782942014682146300,7.039146240234375,0.2136824981689453,-0.22996333249285816,0.26391755147762597
1782942014692131300,7.04913134765625,0.2535001292943954,-0.23455884358957407,0.1793649988297373
1782942014702116600,7.05911669921875,0.30134499953091143,-0.2234922367826104,0.09639233578443526
1782942014712100900,7.069100830078125,0.1882254008293152,-0.24041297644525764,0.1511206453917548
1782942014722085600,7.079085693359375,-0.038030163186788556,-0.3202459532253444,0.3017032383840531
1782942014732070700,7.089070556640625,-0.07615326535403728,-0.4268219755023718,0.3924810952875763
1782942014742057000,7.099056884765625,0.06923661783337592,-0.4756292610302567,0.4270204206839204
1782942014752041700,7.109041748046875,0.23018472015857694,-0.41914018882811066,0.455410721931234
1782942014762026800,7.11902685546875,0.37508652756810185,-0.3431834689594805,0.4630111139323562
1782942014772011800,7.12901171875,0.4620265598744154,-0.2922299651831388,0.47381088649667796
1782942014781996800,7.138996826171875,0.4992459912002086,-0.33351649981737136,0.5043961405050009
1782942014791981800,7.14898193359375,0.556247396838665,-0.4084771943859756,0.5225423303093761
1782942014801966600,7.158966552734375,0.6548696836322545,-0.4448576906695962,0.5294285826917737
1782942014811951900,7.168951904296875,0.6643699179053306,-0.46109337067753076,0.5407690380040556
1782942014821937000,7.17893701171875,0.5810287868738174,-0.5045740543551743,0.5266761421784758
1782942014831922000,7.188921875,0.6027168870687485,-0.5564115013591945,0.37052689150236545
1782942014841906700,7.19890673828125,0.6699497638642787,-0.5829574168488383,0.21479878884777426
1782942014851892700,7.208892822265625,0.5928910741031169,-0.600079670432955,0.25238581137694416
1782942014861877800,7.218877685546875,0.4023018667519092,-0.6148948161184787,0.4333880194870755
1782942014871862800,7.22886279296875,0.31019758355021476,-0.6021659751877189,0.5937122908255085
1782942014881847800,7.238847900390625,0.2562210786908865,-0.5566010325819254,0.6981274452742189
1782942014891832800,7.248832763671875,0.11824176402091979,-0.48008083361163734,0.8113556919820606
1782942014901817900,7.25881787109375,0.023936171382665634,-0.4081329109929502,0.8886847961824387
1782942014911803000,7.268802978515625,-0.01081248591542244,-0.35939956748411056,0.8929606468707323
1782942014921787600,7.27878759765625,-0.12752104901969433,-0.3442472987987101,0.8871193734966218
1782942014931772700,7.288772705078125,-0.31927696206271644,-0.3253049901805818,0.9627448886495082
1782942014941759000,7.298759033203125,-0.24705460641682148,-0.32116803650632497,0.9856641380745917
1782942014951743700,7.30874365234375,-0.15914719038307665,-0.2949250494860112,0.9151365305826067
1782942014961728800,7.318728759765625,-0.11329729335606098,-0.22158435733467338,0.8037658213749528
1782942014971713800,7.3287138671875,0.015022212564945221,-0.17083806656822562,0.734925363252312
1782942014981698800,7.33869873046875,-0.0035176527321338653,-0.15391498881801963,0.7286443832866847
1782942014991683800,7.348683837890625,-0.14491817402243615,-0.19216244801729918,0.657763359247148
1782942015001668600,7.358668701171875,-0.2293763263851404,-0.2588796303756535,0.523222969517298
1782942015011653600,7.368653564453125,-0.405258378469944,-0.31762802581191063,0.3728025082841515
1782942015021639000,7.378638916015625,-0.5649620336920023,-0.3678260350458324,0.28879443777650593
1782942015031624000,7.3886240234375,-0.6917214506894349,-0.386179291729629,0.3257229233317077
1782942015041609700,7.398609619140625,-0.7472662277787924,-0.2977444908209145,0.4077777774123475
1782942015051594800,7.4085947265625,-0.7183265490204095,-0.1595031642138958,0.461632738251239
1782942015061579800,7.418579833984375,-0.6440297251880168,-0.06418306077085435,0.42085218037776645
1782942015071564800,7.428564697265625,-0.5789607484281063,-0.026790610965713856,0.40825964264515785
1782942015081549800,7.4385498046875,-0.4454384131669998,0.00028005905039608475,0.4670365700561553
1782942015091534800,7.448534912109375,-0.2430582302570343,0.03891439867541194,0.4347405666071921
1782942015101520000,7.458519775390625,-0.052473114559054373,0.08675254691019654,0.31793544779326766
1782942015111505000,7.4685048828125,-0.04093699054419994,0.07676854770816863,0.17490911539942025
1782942015121489700,7.47848974609375,-0.25081132860183714,-0.012597908027470111,0.11141842080689966
1782942015131474700,7.488474609375,-0.39749066707789893,-0.22067922518849373,0.10987889974731951
1782942015141460700,7.498460693359375,-0.3768932847291231,-0.42471097469776864,0.048682928495854136
1782942015151445800,7.50844580078125,-0.30951486198306083,-0.47934718557484446,-0.02809153749644756
1782942015161430800,7.5184306640625,-0.2472533438593149,-0.418846758839488,-0.04685648025367409
1782942015171415800,7.528415771484375,-0.13072948967218398,-0.2869160036187619,-0.04699161440804601
1782942015181400800,7.53840087890625,-0.018471476235985756,-0.19643077298626302,-0.07800276567824184
1782942015191385900,7.5483857421875,0.07190554478168487,-0.18759134070947764,-0.06737955525722354
1782942015201370600,7.55837060546875,0.20287235034108161,-0.2555842420920729,-0.06351758259944618
1782942015211355600,7.568355712890625,0.2193114439666271,-0.3184867615330964,-0.0750543276688084
1782942015221340700,7.578340576171875,0.16998188813030718,-0.3445808416020125,-0.10010291727278381
1782942015231326000,7.588325927734375,0.1632709923148155,-0.3471516419380903,-0.0600599894914776
1782942015241311700,7.598311767578125,0.06642389850020408,-0.31311668586730956,0.002369724806025624
1782942015251296800,7.608296875,-0.048102059867978095,-0.28795491821244357,0.04098714982885867
1782942015261281800,7.61828173828125,-0.054290393114089966,-0.27863705476894973,0.0540010547786951
1782942015271266800,7.628266845703125,-0.012034721186757087,-0.2522422381877899,0.025629567829705772
1782942015281251600,7.63825146484375,-0.042400633355975145,-0.2003663588695228,0.025156287762150165
1782942015291236900,7.64823681640625,-0.07810732203125953,-0.18114172617867588,0.009041457654908299
1782942015301222000,7.658221923828125,-0.03739011171758175,-0.1901759503751993,-0.06242047154512256
1782942015311207000,7.66820703125,0.09275660963058471,-0.23270079463273285,-0.17423388301897794
1782942015321191700,7.678191650390625,0.10386077196896075,-0.2287526415288448,-0.2733029637319967
1782942015331176700,7.6881767578125,0.0006014730244874954,-0.23042028248012064,-0.35417638947572555
1782942015341162800,7.698162841796875,0.05584639038443565,-0.27303265889063477,-0.38927817106042056
1782942015351147800,7.708147705078125,0.07166179915368556,-0.2888394459620118,-0.32375067341066893
1782942015361132800,7.7181328125,0.018878887993097303,-0.27505656593367456,-0.23452782739680259
1782942015371117800,7.728117919921875,-0.03320025881230831,-0.2765000427402556,-0.13092431812454014
1782942015381102800,7.738102783203125,-0.22607670031785965,-0.26689532517939807,-0.0043642596241086715
1782942015391087900,7.748087890625,-0.0675865125387907,-0.22824337683245538,-0.12493114212434737
1782942015401072600,7.75807275390625,0.4405085555493831,-0.08079977598562836,-0.47529316094368695
1782942015411057700,7.7680576171875,0.7454606396615505,0.12821633780747652,-0.6607764965232461
1782942015421042700,7.778042724609375,1.790396393328905,0.37135596273764965,-0.18801124662198127
1782942015431028700,7.78802880859375,1.0844447572350502,0.5104975991852582,0.6343345528647303
1782942015441013800,7.798013671875,-0.2573977212548256,0.05079597512707114,0.8651623932324349
1782942015450998800,7.807998779296875,-0.4367448191016912,-0.572207036384195,0.654240445818007
1782942015460983800,7.81798388671875,-0.28425124138891694,-0.7353438809253275,0.430035822982341
1782942015470968800,7.82796875,-0.11675707842111586,-0.303733063711226,0.2465572878865525
1782942015480953600,7.83795361328125,-0.05248597404062748,0.2662567350149154,0.08680793035924435
1782942015490938600,7.847938720703125,0.13379413793981074,0.5160667776197195,0.056192354277893895
1782942015500924000,7.857923828125,0.3263251270085573,0.4274554511003196,0.002205839481204748
