time,seconds_elapsed,z,y,x
1782941968111177700,0.101177734375,-0.07009703405499458,-0.13133403143659234,0.16557026396682484
1782941968121162800,0.111162841796875,-0.12598141836225984,-0.09043240446671844,0.19700744036305695
1782941968131147500,0.1211474609375,-0.14700433264672755,-0.06637436027005314,0.20942010975042358
1782941968141132500,0.131132568359375,-0.0925216318309307,-0.028297800658270714,0.18859923911038784
1782941968151117600,0.14111767578125,-0.09311959772408009,0.020694412982463835,0.145468830175139
1782941968161102600,0.1511025390625,-0.11224983012974261,0.036438510081171986,0.19344835964199156
1782941968171087600,0.161087646484375,-0.1169733515202999,0.020114201941713688,0.25394632042562587
1782941968181072600,0.17107275390625,-0.07309621587097645,0.01265636021643877,0.2443808206303045
1782941968191057700,0.1810576171875,-0.02516366735100746,0.0454112133488059,0.20777022365154696
1782941968201041700,0.191041748046875,-0.07671148375868797,0.08034742910824716,0.19615065913693977
1782941968211026700,0.201026611328125,-0.24938977136611937,0.04689860236234963,0.24321192298140376
1782941968221011700,0.21101171875,-0.24992343985140322,-0.046141135058552024,0.24795491625741123
1782941968230996700,0.220996826171875,-0.11937106031179427,-0.0709166798748076,0.2469751114398241
1782941968240981500,0.2309814453125,-0.12778992908895015,0.005126987624913454,0.24875280690314247
1782941968250966500,0.240966552734375,-0.1676075602144003,0.09157076084688305,0.2235076170148328
1782941968260951600,0.25095166015625,-0.18948738358914852,0.09982304088547825,0.21043434656057505
1782941968270936600,0.2609365234375,-0.21080489690601825,0.01987169842272997,0.19309494309443978
1782941968280921600,0.270921630859375,-0.20321137303709982,-0.06301335940435529,0.18206019273046403
1782941968290906600,0.28090673828125,-0.19619068062007425,-0.06837254834994673,0.19859947706116363
1782941968300891600,0.2908916015625,-0.21350246542692183,-0.018925211352854965,0.18947266094405202
1782941968310876700,0.300876708984375,-0.15238602568507192,-0.010558218893408775,0.1531242128996644
1782941968320860700,0.310860595703125,-0.045072482913732524,-0.0308772226922214,0.1117560278639663
1782941968330845700,0.320845703125,-0.00443418305516243,-0.030214520999789236,0.1326804502100218
1782941968340830500,0.33083056640625,-0.03762567403912544,-0.050418520116806025,0.18549104396197943
1782941968350815500,0.3408154296875,-0.033005613023042675,-0.10267843031659722,0.21015615067370236
1782941968360800500,0.350800537109375,-0.041761166408658026,-0.13290288818851112,0.2044082546714693
1782941968370785800,0.360785888671875,-0.03021685908734798,-0.11809402611330151,0.15320088573191315
1782941968380770600,0.3707705078125,0.0003121346890926361,-0.08223828435614705,0.11312091387584805
1782941968390755600,0.380755615234375,-0.059439446440339085,-0.06385046781562269,0.11977397855687885
1782941968400740600,0.39074072265625,-0.09069909257888793,-0.03718406775146722,0.13041854229317978
1782941968410725600,0.4007255859375,-0.02770341496169567,-0.004051467347890138,0.10895201242705807
1782941968420710700,0.410710693359375,0.02551262691915035,0.022506284710019826,0.07104419697830452
1782941968430695400,0.4206953125,0.021930676779150962,0.04190824672915041,0.03788065344719216
1782941968440679400,0.430679443359375,-0.03090542587339878,0.01109225270487368,0.018855982041545212
1782941968450664400,0.44066455078125,-0.08814940809607505,-0.05870689438208937,0.046872134480532256
1782941968460649500,0.4506494140625,-0.13857786508500575,-0.12072393622547388,0.08522259739656
1782941968470634800,0.460634765625,-0.16219897916913031,-0.14655381240025162,0.12207257435545324
1782941968480619800,0.470619873046875,-0.1545452495455742,-0.1385922589365393,0.11874354866375214
1782941968490604500,0.4806044921875,-0.13854454733729363,-0.1162212910439819,0.08340488045010715
1782941968500589600,0.490589599609375,-0.1612672512769699,-0.10802432138919829,0.021111268421355633
1782941968510574600,0.50057470703125,-0.12097966455221175,-0.1091659657049924,-0.0006470017998013645
1782941968520559600,0.5105595703125,-0.12213994050323962,-0.11804178446941077,0.013567739440314471
1782941968530544600,0.520544677734375,-0.11090250717401504,-0.12304412280134856,0.032072442092467096
1782941968540529400,0.530529296875,-0.12729367000460623,-0.13541713603176175,0.03790204329509288
1782941968550514700,0.5405146484375,-0.11623919202685355,-0.13734540068060158,0.05840855075633153
1782941968560499700,0.550499755859375,-0.020061375775933265,-0.1394146812353283,0.07865781378718092
1782941968570483700,0.560483642578125,0.034358196675777435,-0.14802929178029298,0.08191497068591415
1782941968580468700,0.57046875,-0.00170621939599514,-0.16677607782632112,0.04915133145889267
1782941968590453500,0.58045361328125,0.000986088427901268,-0.20066585327275097,0.0331593605463393
1782941968600438500,0.5904384765625,0.008996960926055907,-0.24336883057616648,0.05565064861662686
1782941968610423600,0.600423583984375,-0.05311433507204055,-0.28082287437543274,0.054685402047354725
1782941968620408600,0.61040869140625,-0.08056874370872974,-0.29246457765661177,0.034105135230161246
1782941968630393600,0.6203935546875,-0.03771276780068874,-0.2915719396658242,0.020983842649403957
1782941968640378600,0.630378662109375,0.004703647646307945,-0.2863451449282467,0.030392727110907434
1782941968650363600,0.64036376953125,0.029224340918660163,-0.2804681426536292,0.03168702297145501
1782941968660352300,0.650352294921875,0.0608417144536972,-0.28493557039126755,0.021841811185609548
1782941968670337300,0.660337158203125,0.08692834186851978,-0.30767880566231903,-0.0020632709390483797
1782941968680322300,0.670322265625,0.06467734709382057,-0.33721915372759104,-0.045517030077148225
1782941968690307300,0.680307373046875,0.053254035803675645,-0.3515885284069925,-0.06487833129232749
1782941968700291300,0.690291259765625,0.04589958138763904,-0.36433760840818286,-0.03682358214231208
1782941968710276400,0.7002763671875,0.11292495291233062,-0.37284780873060225,-0.027300021792575714
1782941968720261400,0.710261474609375,0.21761048526763915,-0.35203744121827185,-0.01881506550926715
1782941968730246400,0.720246337890625,0.22745266484618185,-0.32490985338315365,-0.012703980484139173
1782941968740231200,0.730231201171875,0.2351069789916277,-0.3601472440462559,0.020507548640854655
1782941968750216200,0.74021630859375,0.37594869735538955,-0.38512437584921716,0.08695402429904789
1782941968760201200,0.750201171875,0.4773153144210577,-0.369176499806717,0.15378736211666835
1782941968770186500,0.7601865234375,0.45557519177794453,-0.34879692492708564,0.23963064869483933
1782941968780171500,0.770171630859375,0.4469628462553024,-0.35041831558384,0.24685057174470273
1782941968790156300,0.78015625,0.5346820462405681,-0.3522727843441069,0.1735106833109632
1782941968800141300,0.790141357421875,0.5585808082222938,-0.32410672030672427,0.05752798679582774
1782941968810126300,0.800126220703125,0.5099532631754875,-0.2951495789568871,0.048386703761946405
1782941968820111400,0.810111328125,0.48140462956130503,-0.291340030606091,0.08395126228649169
1782941968830095400,0.820095458984375,0.4356009097635746,-0.2508927963402122,0.10341545762056484
1782941968840080400,0.830080322265625,0.44016368763446806,-0.2296935756407678,0.16969726250264794
1782941968850065200,0.840065185546875,0.4562035528093576,-0.252560437291488,0.2612638403647579
1782941968860050200,0.85005029296875,0.6071136607229709,-0.2793918917242437,0.28525152273895216
1782941968870035500,0.860035400390625,0.7449141116946936,-0.2638249047581106,0.26240458963140845
1782941968880020500,0.8700205078125,0.7891466366529464,-0.26350999359004196,0.22496663845041764
1782941968890005200,0.880005126953125,0.8782488154292106,-0.3039573739863932,0.18642096348954362
1782941968899990300,0.889990234375,1.0376976191073655,-0.3366653923023492,0.17225642719985917
1782941968909975300,0.899975341796875,1.1775438966929912,-0.3415185314219445,0.15554662687415255
1782941968919960300,0.909960205078125,1.333934481844306,-0.3145253836214542,0.13622942052902653
1782941968929945300,0.9199453125,1.485874517327547,-0.2567065971855074,0.10106622761329635
1782941968939930000,0.92993017578125,1.4728577993661165,-0.14080942352935671,0.1404484629961662
1782941968949915400,0.939915283203125,1.4446978728085755,-0.0908412775285542,0.16701741230152548
1782941968959899400,0.9498994140625,1.5399211648136377,-0.1327899293333292,0.16570885045360773
1782941968969884400,0.959884521484375,1.691920237007737,-0.16210691697150467,0.14707004569354465
1782941968979869400,0.969869384765625,1.8223481133848427,-0.12484751896150409,0.1960045469308272
1782941968989854200,0.979854248046875,2.0624439867049453,-0.12287271175719797,0.2655463582558557
1782941968999839200,0.989839111328125,2.4372207176715133,-0.14165084278956055,0.25001495405975727
1782941969009824300,0.99982421875,2.800035792687535,-0.11649221693985164,0.1919309590826742
1782941969019809300,1.009809326171875,3.01483823479712,-0.05086465644910931,0.08472265765094197
1782941969029794300,1.019794189453125,3.099848175823688,0.006856734026968478,0.03368560606028186
1782941969039779300,1.029779296875,3.2035067032188174,-0.005576850284263492,0.07892308626039884
1782941969049764400,1.039764404296875,3.347864320749044,-0.089109046908468,0.19134645545929668
1782941969059749400,1.049749267578125,3.5675054350614546,-0.14961773001551626,0.23451321434956043
1782941969069734400,1.059734375,3.809495159304142,-0.09457027145642787,0.18561636910839005
1782941969079719400,1.069719482421875,3.9366292548328636,0.0448839746043086,0.06089811624947469
1782941969089703400,1.079703369140625,3.998951563233137,0.17623429958857595,-0.009540424719569273
1782941969099688200,1.089688232421875,4.004221028068661,0.25759945437200366,-0.13099029603283852
1782941969109673200,1.099673095703125,3.966575480285287,0.28456257236041127,-0.3211942303935066
1782941969119658200,1.109658203125,3.7369226750463245,0.33254027519635854,-0.2894545456530526
1782941969129643300,1.119643310546875,3.0881063001036644,0.39441692218836394,-0.00019258169634267687
1782941969139628300,1.129628173828125,2.3498960699617863,0.35441549546122547,0.4970996998865157
1782941969149613300,1.13961328125,1.65371939342916,0.1745233674848452,0.8476110275160521
1782941969159598300,1.149598388671875,1.2650976769834756,-0.04699581565912812,0.9022739072043449
1782941969169583400,1.159583251953125,1.225976211428642,-0.03060015931650996,0.7961302119299769
1782941969179568400,1.169568359375,1.069957966721058,0.16320227446015922,0.6831365776956081
1782941969189553200,1.17955322265625,0.9394260454475879,0.41316973611637947,0.5597839369343593
1782941969199538200,1.1895380859375,0.9127759389311074,0.652823710887879,0.5035343360438943
1782941969209523200,1.199523193359375,0.6361018547981977,0.8162633377678692,0.5283548159804194
1782941969219508500,1.209508544921875,-0.00429214423596859,0.7246371934719383,0.5188172819042578
1782941969229492200,1.2194921875,-0.7485907543808221,0.42486748043373224,0.4182518982188776
1782941969239477500,1.2294775390625,-1.6922364633500575,0.16621727489978075,0.45387317363303153
1782941969249462300,1.239462158203125,-2.5713907031863927,0.043464024803787464,0.28955880974512543
1782941969259447300,1.249447265625,-4.0141824501127,0.05019369838498532,0.17874964341036975
1782941969269432300,1.259432373046875,-5.946375670573115,-0.0544189148645848,0.18259053674750028
1782941969279417300,1.269417236328125,-7.06980862237215,-0.3263384248815477,0.19057061224859206
1782941969289402400,1.27940234375,-7.78037681235075,-0.47996349084228274,0.3279927679598331
1782941969299387100,1.28938720703125,-8.660182794094085,-0.48870983800813556,0.03399347328292206
1782941969309372400,1.299372314453125,-9.28821532420516,-0.55700259912014,-0.10756523424377665
1782941969319357400,1.309357421875,-10.534174000954627,-0.7836820145715028,-0.07799564181771129
1782941969329342500,1.319342529296875,-12.01641863734722,-0.9984685284595936,0.01289405969614163
1782941969339327200,1.3293271484375,-13.987474380165338,-0.9206419961310922,0.624639088280499
1782941969349312300,1.339312255859375,-16.46373473032713,-0.5050888720095157,1.2174452605791388
1782941969359297300,1.34929736328125,-18.824433933854102,0.05659114433713257,0.9401969567548483
1782941969369282300,1.3592822265625,-19.938429779744148,0.6467275859698652,-0.16743859685566276
1782941969379266300,1.369266357421875,-20.07287449054718,1.1141619962371885,-1.3759486001007257
1782941969389251300,1.379251220703125,-19.379729729056358,1.318828828779608,-2.3652878464914857
1782941969399236000,1.389236083984375,-18.40954497272968,1.2947390742704272,-2.6266701073378322
1782941969409221400,1.399221435546875,-17.335427548241615,1.120671085870266,-2.139854704774171
1782941969419206400,1.409206298828125,-16.377877817082403,0.895252411069721,-1.2347262118563056
1782941969429191400,1.41919140625,-16.14097577136755,0.5286702386051416,-0.22589042049814015
1782941969439176400,1.429176513671875,-15.592620589083433,0.2564595636218786,0.75066946035102
1782941969449161200,1.4391611328125,-13.724342499172687,0.3186642369918525,1.5995499963462352
1782941969459146200,1.449146240234375,-11.403328824824094,0.5685276172190904,1.9753262597441672
1782941969469131300,1.45913134765625,-9.078172643843292,0.5731235667072236,2.09760034802109
1782941969479116300,1.4691162109375,-6.980504783543944,0.17293313915133476,2.0252419449053702
1782941969489101300,1.479101318359375,-5.269176081711054,-0.6706856769233942,2.064700679590553
1782941969499086300,1.48908642578125,-3.7815246178388593,-1.6343031836889683,1.8983010338611899
1782941969509071400,1.4990712890625,-2.424746436023712,-2.45643629027307,1.617814259572327
1782941969519055400,1.509055419921875,-0.7563081968903541,-2.9038746450856325,1.4364207505896687
1782941969529040400,1.519040283203125,0.9831541280150413,-3.067996409010887,1.2598232437118888
1782941969539025400,1.529025390625,2.526247493124008,-2.8877427177131176,0.8816716294847429
1782941969549010200,1.53901025390625,4.318449474570155,-2.2323703452557324,0.5070699993567541
1782941969558995200,1.5489951171875,5.5155269237726925,-1.961852884056419,0.2749816558002494
1782941969568980200,1.558980224609375,6.584555500689149,-1.960000095796585,0.11865960584050043
1782941969578965500,1.568965576171875,7.668406383684277,-1.9034920266330242,-0.07181355564929545
1782941969588950300,1.5789501953125,8.617246738687157,-1.829195787322521,-0.07851637775618582
1782941969598935300,1.588935302734375,9.029059361106157,-1.271326049979031,-0.22419143456052987
1782941969608920300,1.59892041015625,8.987584610423445,-0.3589202230019495,-0.15990021897377446
1782941969618905300,1.6089052734375,8.822881539478898,0.20601965365717187,0.14706761627444065
1782941969628890400,1.618890380859375,8.465845047864317,0.17683982773367315,0.3341750367913395
1782941969638875100,1.628875244140625,8.103648981529474,-0.5914210380831733,0.45858496805317694
1782941969648860200,1.638860107421875,8.38564513746798,-1.476527135528624,0.7881255499769002
1782941969658841300,1.64884130859375,8.903979860019684,-1.8335114585645496,1.0360267632856965
1782941969668825300,1.658825439453125,9.25993966231346,-1.7574466021463273,1.1828343312513083
1782941969678810400,1.668810302734375,9.619508302754163,-1.7330244008123874,1.3582858098991215
1782941969688795400,1.67879541015625,10.290185211849211,-1.8047741705104707,1.1968782733686267
1782941969698780400,1.688780517578125,10.952740773808955,-1.5050333913058043,0.677921692591533
1782941969708765200,1.69876513671875,11.08113685209751,-0.8736470207221806,0.40048867985010145
1782941969718750200,1.708750244140625,11.091588103485106,-0.326467823414877,0.4516681378694251
1782941969728735200,1.7187353515625,11.09810902968645,0.09192585789486765,0.4942169109918177
1782941969738720500,1.728720458984375,10.918691204690933,0.5923731877088546,0.3307876228427514
1782941969748705300,1.738705322265625,10.576003556424379,1.162477698855847,0.19612751572337
1782941969758690300,1.748690185546875,10.405787275016307,1.5696489252097903,0.164544811642915
1782941969768675300,1.75867529296875,10.524679027378559,1.8208968916632233,0.031960853210464116
1782941969778660400,1.768660400390625,10.731547169357537,1.8741506352059543,-0.04247475803811103
1782941969788645400,1.778645263671875,10.720119766414165,1.8611375705063342,-0.011637355899624526
1782941969798630100,1.788630126953125,10.605491516715288,1.8709090229362249,-0.19255195879153905
1782941969808615200,1.798615234375,10.668011978036164,1.8114445881851016,-0.3615323782617226
1782941969818600400,1.808600341796875,10.816434945309162,1.7665777108460663,-0.44932190353684126
1782941969828584200,1.818584228515625,10.940361769229172,1.7779498764708637,-0.5046676509227603
1782941969838569500,1.828569580078125,10.990876150935888,1.8414732312239706,-0.5248701156698167
1782941969848554500,1.838554443359375,10.704859068918228,2.016558872234076,-0.6443989968918263
1782941969858539300,1.848539306640625,10.371039786762,2.2250607528947293,-0.8418168812192977
1782941969868524300,1.858524169921875,10.275669195240736,2.5182810442894694,-1.0784934476152062
1782941969878509300,1.86850927734375,10.331875651109218,2.939852259656787,-1.315028413583338
1782941969888494300,1.878494384765625,10.485993030631542,3.369409797602892,-1.4728411404922603
1782941969898479000,1.88847900390625,10.510938086795806,3.605256196784973,-1.913257633844018
1782941969908464000,1.898464111328125,9.95545875172019,3.4111785627961155,-1.8924843104064464
1782941969918449400,1.908449462890625,9.425879581576584,2.842238857644796,-1.079580219938606
1782941969928434400,1.918434326171875,9.280531783965229,2.718024156694114,-0.6471802981734276
1782941969938419500,1.92841943359375,9.041720689758657,2.936717176501453,-0.6748854667007923
1782941969948404200,1.938404296875,8.528712715187668,3.057692457139492,-0.5023252525150775
1782941969958389200,1.94838916015625,8.156626538479328,3.107349929755926,-0.2711672303449362
1782941969968374300,1.958374267578125,7.879877051022648,3.1341864987552164,-0.04458637989722192
1782941969978359300,1.968359375,8.073049260604382,3.138101918633282,-0.17933653992023318
1782941969988344300,1.97834423828125,7.933845957097411,3.330971930398047,-0.35804866433180865
1782941969998328300,1.988328369140625,6.98217183997333,3.7198338853403925,-0.34953579712826754
1782941970008313300,1.998313232421875,5.660015474206209,3.737524148070812,-0.17480561849232762
1782941970018298400,2.00829833984375,4.362721162495017,2.8754323944553732,0.44158137241266665
1782941970028283400,2.018283447265625,4.328932290139794,0.6765855486169458,1.2221962544985114
1782941970038268400,2.028268310546875,3.821090904551744,-1.745205252471566,2.3660439255557955
1782941970048253200,2.038253173828125,1.3433236569583415,-2.792816655088961,3.5772727958381174
1782941970058238200,2.04823828125,-2.083467485511303,-2.355214926896989,3.586493920908868
1782941970068223200,2.05822314453125,-4.288016342383623,-1.508524740552902,1.9835012367628513
1782941970078208300,2.068208251953125,-3.900232830327749,-0.8177104678362608,-1.9388532628715036
1782941970088193500,2.078193603515625,-7.377177119976282,0.262540637101233,-6.992697325640917
1782941970098178300,2.08817822265625,-13.132334053122996,-1.4402458618357776,-4.252303516228497
1782941970108163300,2.098163330078125,-8.241839308601618,-2.3114710622385144,-3.664808163689077
1782941970118148400,2.1081484375,-8.614273860356212,2.104243147036433,-3.7713916386201976
1782941970128133400,2.11813330078125,-10.378838477814197,4.715173833450675,-1.2741731099732219
1782941970138118100,2.1281181640625,-12.358898195821046,2.7884903163224455,0.9164782275151461
1782941970148103200,2.138103271484375,-14.835000725072621,-1.0525808615930379,2.212865434318781
1782941970158088200,2.148088134765625,-13.571862949985265,-4.182031417867541,3.8634932914733886
1782941970168073500,2.158073486328125,-11.720560544794797,-4.8303211385875935,4.906205523872376
1782941970178057200,2.16805712890625,-10.836696812093257,-3.364861048257351,4.474639860974252
1782941970188042500,2.17804248046875,-11.524985365724563,-1.347660809379816,2.814235582953691
1782941970198027300,2.18802734375,-13.704686197066307,-1.6936264564037322,2.1788684721708296
1782941970208012300,2.19801220703125,-17.081361601758,-3.3052988522201776,1.2379229620710015
1782941970217997300,2.207997314453125,-19.990302590322493,-4.224900837779045,0.39340767208058386
1782941970227982300,2.217982421875,-22.129157032012937,-3.94132618047744,-0.24699423626540226
1782941970237967400,2.22796728515625,-24.401906733930108,-3.2451784377783537,-0.4449242896324023
1782941970247952100,2.2379521484375,-26.774483422255514,-2.6820935961350796,-0.3965318319831043
1782941970257937200,2.247937255859375,-29.256931521141528,-2.0955629969745875,-0.5857693689970299
1782941970267922400,2.25792236328125,-30.959779394876954,-1.6881887953944503,-0.8339058888990432
1782941970277907500,2.267907470703125,-32.31341284892559,-1.62672354221493,-0.5795408864036202
1782941970287892200,2.277892333984375,-32.50489052954912,-1.1721902607053518,0.9071120679505169
1782941970297877200,2.287877197265625,-30.028299339997766,-0.44925384326931084,2.24038443262428
1782941970307862300,2.2978623046875,-28.10969040825367,1.0224141252577303,3.015962854912877
1782941970317847300,2.307847412109375,-25.5863140866518,2.6685300579458473,3.420618591314554
1782941970327832300,2.317832275390625,-21.51803238208294,3.663091422899067,4.046218049059808
1782941970337817000,2.327817138671875,-15.932385627901553,3.6837121861234303,4.195922288314998
1782941970347802400,2.33780224609375,-10.500706615638732,3.4739611821845173,2.7075822576567528
1782941970357786400,2.347786376953125,-5.74697947191,2.4025319738671183,1.2876999694138764
1782941970367771400,2.357771484375,-1.4286848956406115,1.1181148255161941,0.1364526348256506
1782941970377756400,2.36775634765625,0.5898392853170633,0.6373376802034676,-0.7389276576962321
1782941970387741400,2.377741455078125,1.3768623539447784,-0.3446480981519446,-0.8532097243059426
1782941970397726200,2.387726318359375,2.2973884686112402,-1.584949516324699,0.6997417486030608
1782941970407711200,2.397711181640625,4.350466661077737,-2.1600100424438713,1.4073190131373703
1782941970417696300,2.4076962890625,6.384340386858582,-1.452871534653008,1.2077688660215586
1782941970427681300,2.417681396484375,8.69775527664125,0.10477079948596656,0.25518380806501956
1782941970437666300,2.427666259765625,10.490953283387421,1.1117071504309772,-0.6517126078408211
1782941970447651300,2.4376513671875,11.204335361742972,1.084490788333863,-1.1455978757254779
1782941970457636400,2.44763623046875,11.414167029702663,0.8006808609716594,-1.2610465018965302
1782941970467621400,2.457621337890625,11.594248871564865,0.6392031087491661,-0.8411519875697792
1782941970477606400,2.4676064453125,11.882324639678,0.18192105825440957,-0.4514901144213974
1782941970487591200,2.477591064453125,12.432962964463233,-0.43060730272736397,-0.08275339427143334
1782941970497576200,2.487576171875,12.981848892623185,-0.5510274702332913,0.2324033460561186
1782941970507561200,2.497561279296875,13.306376614820957,-0.31162564359195527,0.2590248110000044
1782941970517546500,2.50754638671875,13.509406786072253,-0.1730056929308921,0.22886622143853455
1782941970527531300,2.51753125,12.789444160282612,-0.31414507906697686,0.2722404125344008
1782941970537516300,2.527516357421875,11.968141805434227,-0.7639625841010361,-0.7872692984737455
1782941970547500300,2.537500244140625,11.53388646506071,-1.5145364020578562,-1.7376456308722494
1782941970557485300,2.5474853515625,10.899416010856628,-1.620069783414155,-1.9538063557229934
1782941970567470300,2.55747021484375,9.974474417835474,-1.7831556284204124,-1.5191951876491308
1782941970577455400,2.567455322265625,9.629285015881061,-1.6359027278400957,-1.5459341414928436
1782941970587440000,2.577440185546875,10.672153900146483,-1.113200457728654,-2.1997826653838155
1782941970597425200,2.587425048828125,11.446304043197632,0.2864907639440149,-2.305138059824705
1782941970607410200,2.59741015625,11.117692851078509,1.4968822335541248,-1.4766780883066355
1782941970617395500,2.6073955078125,10.627040500700474,1.6901146488904952,-0.9703020990960299
1782941970627380500,2.61738037109375,10.276883831727504,1.397018422266841,-1.0554081209082156
1782941970637365200,2.627365234375,9.605291561353207,1.0836006345611064,-1.2833284763313828
1782941970647350300,2.637350341796875,9.000101562169194,0.8763011884927749,-1.1814646503333002
1782941970657335300,2.647335205078125,8.753270827636122,0.8599894475739449,-0.7892996352575719
1782941970667321000,2.657321044921875,8.701804259771109,1.0255029581185429,-0.522214084735699
1782941970677305900,2.667305908203125,8.781521355086564,1.0504669381789862,-0.6017326983369886
1782941970687291000,2.677290771484375,9.037621437746285,0.9829728531640023,-0.8747424147434533
1782941970697276000,2.68727587890625,9.396451242518424,1.156445944410935,-1.044362337693572
1782941970707261000,2.697260986328125,9.678497082817554,1.5341516415014862,-1.0811457156896591
1782941970717245700,2.70724560546875,9.969144747245311,1.8121753866776822,-1.1009824889294801
1782941970727230700,2.717230712890625,10.346014066576958,1.8668655927643178,-1.0626545849051325
1782941970737215700,2.7272158203125,10.695596735054254,1.8259404387883842,-0.8934433888863772
1782941970747201000,2.737200927734375,11.00754554618597,1.8051313133850693,-0.6568817541070282
1782941970757184800,2.747184814453125,11.05027409632206,1.9032479887440799,-0.4856975044496357
1782941970767170000,2.757170166015625,10.829825172758103,1.7051801160752773,-0.25126928323609754
1782941970777154800,2.76715478515625,10.405583861398696,1.4381646716475487,0.004036342843994498
1782941970787139800,2.777139892578125,9.73630103701055,1.453732827657461,0.2864692096993327
1782941970797124900,2.787124755859375,8.795876628175378,1.5675307640120386,0.5434579482944681
1782941970807110000,2.79710986328125,8.269939613926411,1.5986052628420293,0.6132024060521274
1782941970817095000,2.807094970703125,8.151758640182019,1.7372741672113536,0.6347597194742411
1782941970827079700,2.81707958984375,8.156873791238665,2.004442317982763,0.9139192637473345
1782941970837064700,2.827064697265625,8.396003449875115,2.1557871640518305,1.1771863154269755
1782941970847050000,2.837050048828125,8.78923178333342,2.1031687958031893,1.0031324286174028
1782941970857035000,2.847034912109375,9.026904228898882,1.9630078993104396,0.6304742972400039
1782941970867019800,2.857019775390625,9.107034581190348,2.094630976821482,0.2946767372807488
1782941970877004800,2.8670048828125,8.987401655071974,2.3659610695779323,0.027998141858261077
1782941970886989800,2.87698974609375,8.426349488300085,2.3990406246200204,-0.01295137937394902
1782941970896974800,2.886974853515625,6.852686797404289,1.9305819858714937,0.11977018829775042
1782941970906960000,2.8969599609375,4.967111535733938,0.6252971137978136,0.2146041430585086
1782941970916944600,2.906944580078125,3.356738532078266,-1.6591354271285235,0.34064858018700034
1782941970926930000,2.916929931640625,2.339265954875946,-4.59259491700828,-0.1303169359490741
1782941970936915000,2.9269150390625,1.3745225128203629,-6.472664566999674,-1.7767139049351215
1782941970946900000,2.93689990234375,-0.6802560538232326,-5.581203218775987,-4.116820110027492
1782941970956884700,2.946884765625,-2.598902979490161,-3.7344776199817655,-4.976726336297393
1782941970966869800,2.956869873046875,-4.593427860701084,-1.6909717041112482,-3.749458039231598
1782941970976854800,2.966854736328125,-8.083626184198259,0.6391803854607045,-1.0589551458653061
1782941970986838800,2.9768388671875,-11.759864965701103,1.9748085194803773,1.5083302408941088
1782941970996823800,2.98682373046875,-13.498990605998038,2.7821666662588713,2.591621590310335
1782941971006808800,2.996808837890625,-15.262815803265571,3.7567294915392995,2.781831442955136
1782941971016793900,3.0067939453125,-15.889710853779315,3.6302851318404077,0.4220507425125688
1782941971026779000,3.01677880859375,-16.530122388470172,2.5689231440290805,-3.058893065100908
1782941971036764000,3.026763916015625,-17.873947565209864,0.9874133198294788,-4.233150487469136
1782941971046749000,3.0367490234375,-20.94771203622818,-0.3513775160048157,-3.717207920750975
1782941971056734000,3.04673388671875,-23.80311315778494,-1.1250151064239442,-2.570943836201727
1782941971066718700,3.05671875,-24.585542468881606,-1.6121477582432329,-0.9758733964223414
1782941971076703700,3.066703857421875,-26.282196748673915,-1.1994812224086373,1.0018597052678466
1782941971086688800,3.076688720703125,-29.403672234416007,0.10930506364842876,1.6308745244145393
1782941971096674000,3.086674072265625,-32.459227679526805,1.4143166169397532,1.307258510234207
1782941971106658800,3.096658935546875,-34.33792078046798,1.8956828141868114,1.2661920480914413
1782941971116643800,3.106643798828125,-35.65538635807037,2.274264782655239,0.6795455674663186
1782941971126628900,3.11662890625,-35.73556639472246,2.1612365154989064,0.6195242294847965
1782941971136614000,3.12661376953125,-33.80136709513664,2.0896697011522947,1.205569310150668
1782941971146599000,3.136598876953125,-30.99203331274986,2.3775831183105707,1.2069825379494576
1782941971156583700,3.146583740234375,-27.809582841563223,2.9459251498296855,0.7142296350955962
1782941971166568700,3.156568603515625,-23.881523262155053,2.955855299952626,0.5757289999652654
1782941971176554000,3.166553955078125,-19.74363669096231,2.7985817944869398,0.9095981856778264
1782941971186539000,3.1765390625,-15.09754223895669,2.0403839844577014,1.5497838026583193
1782941971196524000,3.18652392578125,-10.63834515404701,1.3705954025045037,2.2545485670551657
1782941971206508800,3.1965087890625,-6.2189931727916,0.974590590070188,2.3582665695525704
1782941971216493800,3.206493896484375,-1.855361909714341,0.42933907288983464,1.742766042625904
1782941971226478800,3.216478759765625,1.4948223784148693,-0.47260362959876656,0.8263868185058235
1782941971236462800,3.226462890625,4.446283827322722,-1.2789990688249468,0.1285929160349071
1782941971246447900,3.23644775390625,7.108892094004154,-1.1667334566041827,-0.2613011584341526
1782941971256433000,3.246432861328125,8.87226370228529,-0.7058871925555169,-0.7516448812544345
1782941971266417700,3.256417724609375,9.831050281763076,-0.32547800865992904,-1.1446448127843438
1782941971276403000,3.26640283203125,10.917570091706514,-0.2100302592717111,-1.1715508668232708
1782941971286388000,3.276387939453125,11.953268061429261,0.11497625941894948,-1.3653069407075642
1782941971296373000,3.286373046875,12.703250562429428,0.4883282182794064,-1.5195912012293933
1782941971306357800,3.296357666015625,12.526665330511332,0.6674814009893685,-1.727374119965732
1782941971316342800,3.3063427734375,12.877877646017074,0.8220165675323456,-1.049579633950442
1782941971326327800,3.316327880859375,13.365457749342918,0.7677187948293983,-0.8995938012748956
1782941971336312800,3.326312744140625,13.91329972140789,0.24417207325045018,-1.4487728671625255
1782941971346297900,3.3362978515625,14.66817934679985,-0.7388893715124577,-1.7846002742707727
1782941971356283000,3.346282958984375,15.186201350140571,-1.7604716490559278,-1.9554555842347443
1782941971366268000,3.356267822265625,15.303137292259931,-2.2803541855715213,-2.0195213753014802
1782941971376253000,3.3662529296875,15.144300483000277,-2.860570340888202,-1.9726390664868056
1782941971386238000,3.376238037109375,14.329123917555808,-2.668621827882528,-2.072180513951927
1782941971396222700,3.38622265625,13.626320516359804,-2.3742092579632996,-1.647691803702712
1782941971406207700,3.396207763671875,12.853084565544128,-1.9279915309868751,-1.280498367471993
1782941971416192800,3.40619287109375,12.326654799342155,-1.4021116537526248,-1.0878932902537286
1782941971426177800,3.416177734375,11.643072815966605,-1.125495437286794,-0.7449729292098433
1782941971436163000,3.4261630859375,10.823235272973776,-0.7563042513675987,-0.6819323895376175
1782941971446147800,3.43614794921875,9.99716205046177,-0.2081535786796361,-0.8126708662338554
1782941971456132900,3.4461328125,9.324342284119128,0.34134660892114044,-0.8436860360920428
1782941971466118000,3.456117919921875,8.935462793520092,0.8101246888823807,-0.7754502658642828
1782941971476103000,3.46610302734375,8.825589629393816,1.1594260562002658,-0.8651054023481904
1782941971486087700,3.476087646484375,9.021493309766054,1.3769532470986245,-1.040783967750147
1782941971496072700,3.48607275390625,9.221627759575844,1.493092193621397,-1.2707210698232054
1782941971506057700,3.4960576171875,9.24267113212645,1.58519457712695,-1.5848656374335288
1782941971516043000,3.50604296875,9.127039842864871,1.6397541425712405,-1.9434088803492486
1782941971526027000,3.516027099609375,9.04134191957414,1.5684282973736523,-2.200317210651934
1782941971536012000,3.526011962890625,9.08959069443643,1.4961651713259518,-2.253575922630727
1782941971545996800,3.535996826171875,9.128560184299944,1.6240454090468583,-2.08371532279253
1782941971555981800,3.54598193359375,9.100320762765406,1.8026950261488557,-1.7448313045926391
1782941971565966800,3.555966796875,9.099385527741909,1.8578334143944084,-1.4073589067563415
1782941971575952000,3.565951904296875,9.100767922011018,1.8004048693850636,-1.1185523401506245
1782941971585937000,3.57593701171875,9.068389500975607,1.6937747788332402,-0.7989622935507446
1782941971595921700,3.585921630859375,9.081843441310525,1.6045011890128253,-0.4573475352127105
1782941971605907000,3.595906982421875,9.128391257473826,1.5984281527094542,-0.20285956392474472
1782941971615892000,3.60589208984375,9.116523709547518,1.7098621364116668,-0.09815006617195904
1782941971625877000,3.615876953125,9.07452113559842,1.7561990863032637,0.030683892077207564
1782941971635861800,3.62586181640625,8.942236817699671,1.7355151947148144,0.1523114260789007
1782941971645846800,3.6358466796875,8.519350428080559,1.827851094715297,0.28168431351035833
1782941971655831800,3.645831787109375,7.954643830454349,1.924904232496023,0.5173473920147865
1782941971665815800,3.65581591796875,7.271577979907393,1.8190668997570871,0.6559392856251448
1782941971675801000,3.665801025390625,6.6045116625249385,1.6486045346334575,0.5531189626198262
1782941971685786000,3.6757861328125,6.204951787957548,1.5989727809801697,0.4295345223966986
1782941971695771000,3.68577099609375,6.087614279299974,1.5735739896990357,0.18332674206756056
1782941971705756000,3.695755859375,6.031386196121573,1.5598523383386431,-0.19004406762383877
1782941971715741000,3.705740966796875,5.783764018949866,1.475223067192733,-0.40698732115440067
1782941971725726000,3.715725830078125,5.267285737919807,1.0816127486795186,-0.4252169514585286
1782941971735711000,3.7257109375,4.1953900811344385,0.2304873563669622,-0.0837813125470653
1782941971745695700,3.73569580078125,3.155218765389919,-1.498333747536689,0.39244339362569153
1782941971755681000,3.745680908203125,2.390950549405813,-4.110596413207054,-0.27535929347360505
1782941971765666000,3.755666015625,1.579313264003396,-5.485789372634887,-2.0994252253606915
1782941971775651000,3.765651123046875,-0.958169324362278,-3.9566993984371424,-2.679521407559514
1782941971785635800,3.7756357421875,-5.458061992275715,-1.1819219656467437,-1.9163912556946276
1782941971795620900,3.785620849609375,-11.022369021308421,1.6830379885025322,-1.0180847908165305
1782941971805606000,3.79560595703125,-15.114185915243624,3.771291977638006,-0.6837368816763162
1782941971815591000,3.8055908203125,-17.511169899594783,4.1886663258373735,-1.3033799152351915
1782941971825576000,3.815575927734375,-19.538745402014253,3.1667642417550086,-2.1072702397726477
1782941971835561000,3.82556103515625,-19.726379266691207,1.2844345378771425,-2.6432836807474493
1782941971845544700,3.835544677734375,-18.676462217479944,-0.49166138129010795,-3.544493977308273
1782941971855530000,3.845530029296875,-18.355156379938123,-1.0013756480779499,-4.953975575307012
1782941971865515000,3.855514892578125,-19.316248313748837,-0.6344642436590046,-6.38039018792808
1782941971875500000,3.8655,-19.636643466186523,-0.7218238896168768,-5.879361989486217
1782941971885485000,3.875485107421875,-19.677354246759414,-0.8708722953118383,-2.591468445575237
1782941971895469800,3.8854697265625,-21.87928327652216,-1.0988356130938977,-0.12339753934890031
1782941971905454800,3.895454833984375,-23.719327790117262,-1.0399475169260055,2.210765247169137
1782941971915439900,3.90543994140625,-26.904698532664774,0.09469055510153994,2.81856455206871
1782941971925425000,3.9154248046875,-29.49478750658035,1.5443148697279392,2.566753983296454
1782941971935410000,3.925409912109375,-31.33012311183214,2.6624951616957784,2.927335600171983
1782941971945395000,3.93539501953125,-32.36578834832906,2.8535639692574737,3.161718648803234
1782941971955380000,3.9453798828125,-32.53416806195974,2.5601146914124486,3.549206977304816
1782941971965365000,3.955364990234375,-31.462323258578774,2.1149568487524983,3.7635850565224884
1782941971975350000,3.96535009765625,-28.627445869612693,1.3632961854070424,2.7170307617425915
1782941971985334800,3.975334716796875,-23.81897941995859,0.9481699083954095,0.7846534168869257
1782941971995319800,3.98531982421875,-18.28371845266819,1.0475883140027522,-0.45910526560023424
1782941972005304800,3.995304931640625,-13.100439031690359,0.6400917281519621,-0.8567064803805202
1782941972015287000,4.005287109375,-13.118354627609252,0.7497964769087732,-1.0105511073760687
1782941972025271800,4.015271728515625,-8.772479385975002,-0.15840309401750563,-0.9009488691456615
1782941972035256800,4.0252568359375,-5.485519323521852,-0.9878856865815818,-0.5457802172295749
1782941972045241900,4.035241943359375,-2.4624808311343194,-1.4440769644312559,-0.10632562771253287
1782941972055227100,4.04522705078125,1.0438199013799427,-1.7277457297571002,0.10482947087064384
1782941972065212000,4.0552119140625,3.4250562815010546,-2.1462560962490738,-0.0038669776264578103
1782941972075197000,4.065197021484375,5.493757575035095,-1.9658716181784868,-0.13810652124620973
1782941972085182000,4.075181884765625,7.110196162340045,-1.3942024880632757,-0.26399675419367846
1782941972095166000,4.085166015625,8.494774205228685,-0.8180562125340104,-0.216335058504343
1782941972105151000,4.09515087890625,9.500301493093371,-0.45831214246116575,-0.1371178755350411
1782941972115136000,4.105135986328125,9.758475459417701,-0.37347514684870836,-0.3202885502580553
1782941972125120800,4.115120849609375,10.203825609779358,-0.2893600357700139,-0.7972965522956103
1782941972135105800,4.125105712890625,10.952526838797331,-0.19824067195244133,-1.2455799065649509
1782941972145090800,4.1350908203125,11.52264026390314,-0.07045454225577413,-1.6182555735990405
1782941972155076000,4.145076171875,11.88277589057684,0.09556746580023318,-1.7915964167684315
1782941972165061000,4.15506103515625,12.58940440301895,-0.1579671685519628,-1.9721243949629366
1782941972175046000,4.1650458984375,13.032272088915109,-0.44412981478646396,-2.4507617517679927
1782941972185031000,4.175031005859375,13.058733394861221,-0.8798461676232516,-2.7611946053788063
1782941972195016000,4.185015869140625,12.808688958978653,-1.5190173468641937,-2.496537999036908
1782941972205001000,4.1950009765625,12.613916912984847,-2.4126886262223124,-2.1081854549214243
1782941972214985700,4.20498583984375,12.633967182844877,-3.24689137917608,-1.884222970278561
1782941972224970800,4.214970703125,12.932588894891738,-3.368699018985033,-1.864357117074728
1782941972234956000,4.2249560546875,12.967618122696877,-2.9672181132271884,-1.7775436337575314
1782941972244941000,4.234941162109375,12.984176458787918,-2.1947757970072326,-1.560256389094889
1782941972254926000,4.244926025390625,12.993560373204947,-1.3359051973953842,-1.338956693920493
1782941972264910800,4.254910888671875,12.89142452533245,-0.6304700594563036,-1.2086607002947478
1782941972274896000,4.264895751953125,12.709593793976307,-0.06355747621841729,-0.9682262426700442
1782941972284881000,4.274880859375,12.115185301047562,0.5807376219075173,-0.776961401079595
1782941972294866000,4.284865966796875,11.389136633342504,1.1555343094587325,-0.8794445280198008
1782941972304851000,4.294850830078125,10.749379763168095,1.4909844076871872,-0.9329787690043448
1782941972314836000,4.3048359375,10.087264930713177,1.693777555312216,-0.7895303022082895
1782941972324821000,4.314821044921875,9.612627311068772,1.8314334832467138,-0.6615162820398807
1782941972334806000,4.324805908203125,9.207520908290148,1.9818515698596835,-0.5993222031291574
1782941972344791000,4.334791015625,8.887411002534627,2.161773691115528,-0.6365124083604663
1782941972354775800,4.34477587890625,8.620312555998563,2.3839602521270513,-0.6916399098858237
1782941972364760800,4.3547607421875,8.466506142121553,2.5622704081416128,-0.797194918552041
1782941972374745900,4.364745849609375,8.530596629238127,2.5671768848836423,-0.935931262134388
1782941972384731000,4.37473095703125,8.66489053339362,2.4262105172269046,-0.9992003498654812
1782941972394716000,4.3847158203125,8.814880603852867,2.272684819987416,-0.9727240655459463
1782941972404701000,4.394700927734375,8.959026624459028,2.1834945245362816,-0.9630022244114428
1782941972414686000,4.40468603515625,9.134310126128792,2.0803696656264363,-0.9498857724025845
1782941972424674000,4.414674072265625,9.787278944575785,1.7951830430835485,-0.5837740669939666
1782941972434659000,4.4246591796875,9.962305841135978,1.8426617103561758,-0.5780438527788967
1782941972444644000,4.43464404296875,9.886051453495025,1.9215039225332438,-0.43564694086238737
1782941972454628900,4.44462890625,9.551957446050643,2.0059796105526386,0.057921662288531656
1782941972464614000,4.45461376953125,9.016957419902086,2.0749885571099815,0.21286321767531335
1782941972474599000,4.464598876953125,8.65728181195557,2.0901267972700297,0.10874364863969385
1782941972484584000,4.474583984375,8.493803314369917,2.0024493905998764,-0.04160064208470285
1782941972494568700,4.484568603515625,8.25677208931744,1.8921794822409748,-0.1604969244915992
1782941972504554000,4.494553955078125,8.081867357832193,1.8385858392193912,-0.13444558758586644
1782941972514539000,4.5045390625,7.8246987691581245,1.8279111543394624,-0.054653892664238805
1782941972524524000,4.51452392578125,7.356879012835026,1.8568198534376918,-0.018552943974360823
1782941972534509000,4.524509033203125,6.750105543851852,1.82284276503399,-0.14389562604166567
1782941972544493800,4.534493896484375,5.898537230077386,1.610229211270809,-0.19736370645482093
1782941972554478800,4.544478759765625,4.9982858416765925,1.011011418364197,-0.3185079504515976
1782941972564463900,4.5544638671875,4.148573384901881,-0.11451324501708149,-0.6819440069101751
1782941972574449000,4.564448974609375,3.5143975297302004,-1.8712959764271972,-1.054704721879214
1782941972584434000,4.574433837890625,3.0754648451954125,-4.029845883190632,-1.3966875828772782
1782941972594419000,4.5844189453125,2.3376626113325356,-5.167006916090846,-1.977842918740213
1782941972604404000,4.594404052734375,0.44587095936536786,-4.4290304947048424,-1.874994830945134
1782941972614389000,4.604388916015625,-3.749100604096055,-1.7537033239647746,-1.2048239716760814
1782941972624374000,4.6143740234375,-9.774975343319774,1.743545210304856,0.10484927154965698
1782941972634358800,4.62435888671875,-16.180003128898143,4.20614762199223,1.3929453276090322
1782941972644343800,4.63434375,-20.55163532760143,4.2605677789658305,1.810657967852056
1782941972654328800,4.644328857421875,-22.292837189650534,2.340856292807311,0.9553688799887895
1782941972664318200,4.654318115234375,-22.980001123166083,0.4227599867604673,0.04656812829896807
1782941972674303000,4.664302978515625,-23.24606379691362,-0.9289198490023612,-1.3245138886786996
1782941972684288000,4.6742880859375,-23.05820547583103,-1.5936656144827603,-4.1128427308291196
1782941972694273000,4.68427294921875,-21.480639347755908,-2.3632354440063237,-6.521634057351946
1782941972704258000,4.694258056640625,-19.632556489133833,-1.9045444582954048,-6.977386359262466
1782941972714243000,4.7042431640625,-18.57106239937544,-0.7412405377484858,-5.084751242208481
1782941972724228000,4.71422802734375,-19.267175363022087,0.5539460610937327,-2.4284479208901524
1782941972734213000,4.724213134765625,-22.703536297869682,1.1466614863689988,-0.48282815955840047
1782941972744197000,4.734197021484375,-26.433267600107193,0.5965421439565718,0.1921107178300619
1782941972754182100,4.74418212890625,-29.057099853670596,-0.007517433275270741,0.4972833128251135
1782941972764167200,4.754167236328125,-31.40522716039419,0.38438459033258254,1.3792349282950163
1782941972774152000,4.76415185546875,-33.043604607784744,1.337028648467362,2.5907421771273014
1782941972784137000,4.774136962890625,-33.62376830226183,2.024452986484766,2.233041522515565
1782941972794122000,4.7841220703125,-33.85013492543697,2.278583376506716,-0.05953932661823928
1782941972804107000,4.79410693359375,-32.66481338047981,1.9354658123902975,-1.6254345253176987
1782941972814092000,4.804092041015625,-29.48867106952667,1.0568078316383063,-2.013026168063283
1782941972824077000,4.8140771484375,-24.920740053653716,0.5108374255988747,-1.5137760852098463
1782941972834062000,4.82406201171875,-19.86194158334732,0.4183269727490842,-1.1480451227471231
1782941972844047000,4.834047119140625,-14.964141484248637,0.122309196122922,-1.2567536270081996
1782941972854032100,4.8440322265625,-9.937346756446361,-1.1691068346720188,-0.7844097443241626
1782941972864017000,4.854016845703125,-4.53466821321845,-2.8116762538596984,-1.3012801664769649
1782941972874002000,4.864001953125,0.08262801432609558,-3.86584979147166,-1.376525377075374
1782941972883987000,4.873987060546875,4.473117473712564,-4.362766755202412,-1.4389017537504434
1782941972893972200,4.88397216796875,8.201949781283735,-4.008303913468122,-1.579540935279429
1782941972903957200,4.893957275390625,11.606947025096416,-3.6283518256902694,-1.1778105117399245
1782941972913942000,4.90394189453125,13.80287418409586,-2.954827710470557,-0.25835569783309476
1782941972923927000,4.913927001953125,14.875836593329906,-2.4174366975322363,0.40356995045896615
1782941972933912000,4.923912109375,15.235967543828487,-2.1301105787426233,0.9755566586233675
1782941972943897000,4.93389697265625,15.823970845890043,-1.9524778835982084,1.3575195017017423
1782941972953881900,4.9438818359375,16.70521241339445,-1.6786194414079187,2.009691470682621
1782941972963867000,4.953866943359375,17.076490196329353,-0.9312734263911843,2.678396787443757
1782941972973852200,4.96385205078125,16.893753456044195,-0.5628735735127702,2.764291110089421
1782941972983837200,4.973837158203125,16.423362972450256,-0.8201230819359421,2.1857924262151123
1782941972993822200,4.983822265625,15.583428397846221,-1.318571346887201,1.6269364543132483
1782941973003807000,4.993806884765625,14.814382299935817,-1.7738570541992782,1.2108894822601228
1782941973013792000,5.0037919921875,14.183124378037451,-2.271313093242794,0.8871770219679921
1782941973023777000,5.013777099609375,13.3430378277421,-2.31115761237517,0.4901057493459433
1782941973033762000,5.023761962890625,11.606652426064013,-1.8738922765307127,-0.28597225649524477
1782941973043747000,5.0337470703125,10.576673418509959,-1.7084217283450065,-1.2653498981788753
1782941973053732000,5.043732177734375,10.437129338741302,-2.068460616645962,-1.9909641199894248
1782941973063717000,5.053717041015625,9.758350371733307,-2.0958406448721885,-2.6609590381696817
1782941973073702100,5.0637021484375,9.490444700467586,-1.8976263494700192,-3.242465671688318
1782941973083687200,5.073687255859375,9.711014035540819,-1.3342358028784393,-3.2647914852648974
1782941973093672000,5.083671875,8.816945135167241,-0.21690277538970112,-2.4615701460301875
1782941973103657000,5.093656982421875,8.270342934030294,1.0918763685405253,-1.4506182027682661
1782941973113642000,5.10364208984375,8.234382562854886,2.1890978975012896,-1.0414058259755372
1782941973123627000,5.113626953125,8.175872506219148,3.144153766018152,-0.5539344437211752
1782941973133612000,5.123612060546875,8.398112404853105,3.5009327757403255,-1.1618863088339566
1782941973143597000,5.13359716796875,8.14815564725399,3.4874130766928193,-1.2549283112771807
1782941973153582000,5.14358203125,8.032666981333493,3.217911660668254,-0.9496535710819065
1782941973163567000,5.153567138671875,7.893531482365727,2.945181930246949,-0.9512949085481465
1782941973173552000,5.16355224609375,7.6389084865212435,2.756139660076797,-1.070873328000307
1782941973183537000,5.173536865234375,7.173139232987165,2.4959397408828137,-0.9126181910861283
1782941973193522000,5.18352197265625,6.841093974766135,2.493526250000298,-0.562690143237263
1782941973203507000,5.1935068359375,7.323540806856751,2.450361938795447,-0.6152502054274082
1782941973213492200,5.2034921875,7.731950342833995,2.27767064557597,-0.8016524824827909
1782941973223477200,5.213477294921875,8.378604571306704,2.1104940241247414,-0.9332219301104545
1782941973233462000,5.2234619140625,9.201284644249082,2.2155179946541783,-1.064243461531773
1782941973243447000,5.233447021484375,9.871508548879623,2.3402868223562834,-0.7647980850771069
1782941973253432000,5.24343212890625,10.282416915935277,2.591648186056316,-0.22204684201357885
1782941973263417000,5.2534169921875,10.29666171438694,3.052151189625263,0.13898041800390928
1782941973273401900,5.26340185546875,10.170838701456784,3.2982898502409457,0.4824215149862692
1782941973283387000,5.273386962890625,10.059259317934513,3.2141657521381974,0.827498067683354
1782941973293372200,5.2833720703125,9.988408250641822,3.073755118668079,0.9803577022295444
1782941973303357200,5.293357177734375,9.746455351278184,2.981799304026365,0.9114264240182935
1782941973313342200,5.30334228515625,9.187903184628485,2.9217621839538217,0.8786086617175489
1782941973323327000,5.313326904296875,8.865462790098785,2.9063252531081436,0.7760502775840461
1782941973333312000,5.32331201171875,8.36134247086048,3.0154449685186147,0.6599712445549667
1782941973343297000,5.333297119140625,7.292101127976179,3.139336721125245,0.8249217143893242
1782941973353282000,5.343281982421875,5.5886406753003595,3.170187494201958,1.0140452331021428
1782941973363267000,5.35326708984375,3.5700977896422144,3.1021330718904734,0.46262405084352937
1782941973373252000,5.363252197265625,2.575649529674649,2.506743751230836,-0.6660190733518451
1782941973383237000,5.373237060546875,2.71099089705646,1.427410637921095,-0.6965685253944247
1782941973393222100,5.38322216796875,2.748651057887077,0.18112316760867833,0.4069057072855532
1782941973403207200,5.393207275390625,2.556333419308066,-1.2292258608743547,1.325173229370266
1782941973413192000,5.40319189453125,1.765162583351135,-2.693604293447733,1.883440733859688
1782941973423177000,5.413177001953125,-0.0894108063340187,-4.007992363300919,1.5806487503908573
1782941973433162000,5.423161865234375,-3.8625890361100432,-3.281582753328979,0.6932004372008145
1782941973443147000,5.43314697265625,-8.276460540127754,-0.5416097996771335,0.9846364755272865
1782941973453132000,5.443132080078125,-11.189987687438725,2.4975717259988186,1.9466266733519733
1782941973463117000,5.453116943359375,-13.484457053732871,5.453225658160448,2.043463538033515
1782941973473102000,5.46310205078125,-15.231962399840354,6.955301368704438,1.2364023283749819
1782941973483087000,5.473087158203125,-15.484055000424384,5.686852627727389,0.34734614159688354
1782941973493072100,5.483072021484375,-14.561953014743327,2.639716635915637,0.028889665604196486
1782941973503057000,5.493056884765625,-13.30073714762926,-0.15891148193106056,-0.15426204869002103
1782941973513042000,5.5030419921875,-11.744866134011744,-1.9013675818249582,-0.10784012392871081
1782941973523027000,5.51302685546875,-10.879062958657741,-2.1327619700342417,-0.9180433579400181
1782941973533012200,5.52301220703125,-11.276734242999552,-1.524592078256607,-1.9819906860694287
1782941973542997200,5.532997314453125,-12.710453041154146,-1.172629090514034,-2.122132439470291
1782941973552982000,5.54298193359375,-14.187766650885342,-1.0537209715388716,-1.3919715141408144
1782941973562967000,5.552967041015625,-15.474712002539635,-1.3214699909381569,-0.09758683366547338
1782941973572952000,5.5629521484375,-15.763222654938696,-1.7843018758460878,0.9950154653962701
1782941973582937000,5.57293701171875,-14.958797785133122,-1.9794636518098412,1.2964010161332786
1782941973592921900,5.582921875,-13.671702795875072,-1.8344456706747412,1.1878745173756033
1782941973602906000,5.592906005859375,-12.293237682908773,-1.8148750010251997,1.2265252236135302
1782941973612891000,5.602890869140625,-11.410467006140946,-1.8457362954959273,1.3155587210677564
1782941973622876200,5.612876220703125,-11.194294444721937,-1.9239815646931528,1.3316072079405188
1782941973632861200,5.622861083984375,-11.988672552287579,-1.9103953762806951,1.3893722914278506
1782941973642846200,5.63284619140625,-13.611151004278659,-1.9661685552984476,1.1652556391365825
1782941973652831000,5.6428310546875,-16.11340738096237,-2.054444220122695,1.0839430182579903
1782941973662812000,5.65281201171875,-18.61070467393398,-1.7533879744052885,1.2193332662828267
1782941973672797000,5.662796875,-20.201604915356636,-0.7700966298766434,1.238699791662395
1782941973682782200,5.6727822265625,-21.347648927414415,0.6882630538638681,1.181484670208022
1782941973692767200,5.682767333984375,-22.086718404734132,1.3177439561523496,1.0228168608397246
1782941973702752000,5.692751953125,-21.73569430527687,1.016635249595344,0.27165143366530536
1782941973712737000,5.702737060546875,-20.23337484910488,0.1856028703060001,-0.4436096999024972
1782941973722722000,5.71272216796875,-17.35048366307616,-0.15084098820015787,-0.45629503048509357
1782941973732707000,5.72270703125,-13.936972857940196,0.11923859303854405,0.11465356680322437
1782941973742692000,5.732692138671875,-10.545040262883902,0.27781090614311393,0.508969841628708
1782941973752676900,5.7426767578125,-7.34670657838881,0.1729888879265636,0.700800244680047
1782941973762662100,5.752662109375,-4.330881670641899,-0.21852365458980202,0.953862859340012
1782941973772647200,5.762647216796875,-1.6118354774236678,-0.6371463223498314,0.7336723675165325
1782941973782632200,5.772632080078125,0.6301344708263874,-0.8900886716309935,0.5053768221054226
1782941973792617000,5.782616943359375,2.449560559284687,-1.2799819423824548,0.2993396875904873
1782941973802602000,5.79260205078125,4.08997623450458,-1.7057415493503212,0.45071259071025993
1782941973812587000,5.8025869140625,5.71385578546524,-1.9595099741920827,-0.2319243486338295
1782941973822572000,5.812572021484375,7.696625346952676,-2.002773361857235,-1.3299113638080655
1782941973832557000,5.82255712890625,9.723127667182684,-1.40880705973804,-0.9378430140398443
1782941973842542000,5.8325419921875,11.431101797890662,-0.41075069227591154,-1.5237753550462423
1782941973852527000,5.842527099609375,13.263283323025703,0.32155674356296654,-1.0953986243825404
1782941973862512000,5.85251220703125,14.295648348933458,0.5185178240336478,-0.646107846636325
1782941973872497200,5.8624970703125,15.799058522951603,0.14573036718815563,0.18527298076450824
1782941973882482200,5.872482177734375,16.588004084074495,0.2684566562119871,0.9884279036995023
1782941973892467000,5.882467041015625,16.02737978732586,0.8019772574577481,1.5025518036231398
1782941973902452000,5.892451904296875,15.449925936329365,0.9259818227890878,2.184699662542343
1782941973912437000,5.90243701171875,14.643559284806251,0.7308334177635609,2.4727123022913933
1782941973922422300,5.91242236328125,13.605436718285082,0.12321173445321619,2.3850807805895804
1782941973932407000,5.922406982421875,12.754399734908342,-0.8936428569812327,1.9703028786242007
1782941973942392000,5.93239208984375,11.76850419923067,-2.149601022762805,1.2296793037302791
1782941973952377000,5.942377197265625,11.275897207653522,-3.1856115655660626,0.3900379399191588
1782941973962362000,5.952362060546875,11.585135006260872,-3.5520591518655418,-0.1404457595824264
1782941973972347100,5.96234716796875,11.867192536997795,-3.1508219917356968,-0.4420100826861337
1782941973982332000,5.972331787109375,12.16623393576145,-2.542038351973891,-0.7750253915157168
1782941973992317000,5.98231689453125,12.781599876523018,-2.026718301068246,-0.7610721964217722
1782941974002302200,5.99230224609375,12.93564243724346,-1.541033802230656,-0.589173770613037
1782941974012287200,6.002287353515625,12.53282034600973,-1.3009127944692969,-0.4941175057379529
1782941974022272000,6.01227197265625,12.126839498484134,-1.3839410601593554,-0.3493881688185036
1782941974032257000,6.022257080078125,11.893194408738612,-1.4355463058426976,-0.13650661176890133
1782941974042242000,6.032241943359375,11.242473076957463,-0.9578419190388172,0.1052504362290725
1782941974052227000,6.04222705078125,10.403555570441483,-0.27115628882581366,0.4386632930088788
1782941974062212000,6.052212158203125,10.39468603528738,0.07515238121580332,-0.005220474594645202
1782941974072196900,6.06219677734375,10.439571471196412,0.2505322559321299,-0.5552639022266492
1782941974082182100,6.07218212890625,9.995794269239902,0.47598121627308426,-0.751884169903025
1782941974092167200,6.082167236328125,9.637835402083397,0.6900737565476447,-0.5304631133712828
1782941974102152200,6.092152099609375,9.364155823591352,0.9226726982410997,-0.42261677889749405
1782941974112137000,6.102136962890625,9.017140959775448,1.093255621004477,-0.5436117140840738
1782941974122122000,6.1121220703125,8.82422009460628,1.2776099525541067,-0.6761285986296832
1782941974132107000,6.12210693359375,8.772741836303473,1.3841126173339784,-0.5651386689005419
1782941974142092000,6.132092041015625,8.520309043979644,1.464645997468382,-0.2868106618144549
1782941974152077000,6.1420771484375,7.908166741439699,1.7143809290103613,-0.022796929086511954
1782941974162062000,6.15206201171875,7.016464570197463,1.9428152983702718,0.16636998124346136
1782941974172047000,6.162047119140625,6.783452517658471,2.1232987067706883,-0.0532547116571106
1782941974182032100,6.1720322265625,6.60629737689793,2.256947298759967,-0.40464813761711116
1782941974192017200,6.18201708984375,6.5309829004555935,2.3238863071754574,-0.2653512010099366
1782941974202002200,6.192002197265625,6.431670877832174,2.2535427510134873,-0.05658895238004624
1782941974211987000,6.201987060546875,6.104788701462745,1.9921219117224216,0.15754074156712738
1782941974221972000,6.211971923828125,5.666103269687294,1.4526003164961934,0.40850525143668054
1782941974231957000,6.22195703125,5.014164378809928,0.6254258547440171,0.6631218175403774
1782941974241942300,6.2319423828125,4.100114182159304,-0.2763179641716182,0.7808677608683705
1782941974251927000,6.241927001953125,3.1847377053409813,-1.2403402523458003,0.7235433338206261
1782941974261912000,6.251912109375,2.1393623912125825,-1.9557609969221055,0.11027136966362595
1782941974271897000,6.26189697265625,0.7143342645138502,-1.3770645985186099,-0.8886552047617733
1782941974281882000,6.271882080078125,-2.1170377466797827,0.5876447709474713,-1.0823165860999375
1782941974291867100,6.2818671875,-4.922632927060127,2.240575279021263,-0.3144070910040289
1782941974301852000,6.291851806640625,-7.365474991744756,3.6088974758967756,0.40449711177386344
1782941974311837000,6.3018369140625,-10.46874495871067,4.644107369841635,1.3000699139043688
1782941974321822200,6.311822265625,-14.284078322649002,4.930140526211262,2.6166809205040336
1782941974331807200,6.32180712890625,-17.029963422954083,4.376396636626124,3.132594553388655
1782941974341792000,6.3317919921875,-17.035855403602124,3.586790858028829,3.0898689258620142
1782941974351777000,6.341777099609375,-16.69670528181195,3.3463571310564872,0.7622199051521718
1782941974361762000,6.351761962890625,-16.64365056797266,3.650989189434051,-1.8994389518499373
1782941974371747000,6.3617470703125,-17.250518729501962,3.811435771977901,-4.3083670564949506
1782941974381732000,6.371732177734375,-18.689350925147533,3.6594185796052217,-5.843130400153994
1782941974391716900,6.381716796875,-20.54990981898308,3.4034745642900464,-5.310283168125152
1782941974401702100,6.3917021484375,-22.591714922285078,2.8604461299866437,-3.9809062034547327
1782941974411687200,6.401687255859375,-24.17955694518089,2.085578778576851,-3.035523295429349
1782941974421672200,6.411672119140625,-24.721331580030917,1.661842347999662,-2.35866419056803
1782941974431657000,6.421656982421875,-24.65099489200115,1.4591609901860356,-1.7409449646785855
1782941974441642000,6.43164208984375,-25.445659415292738,2.3079222837157545,-1.211896321215108
1782941974451627000,6.441626953125,-27.821128317928313,4.463502965410053,-0.2644154545297846
1782941974461612000,6.451612060546875,-31.38316496618986,5.419983898293972,1.0016125255737454
1782941974471597000,6.46159716796875,-34.51147701995372,4.040711560598016,1.914780167236179
1782941974481582000,6.47158203125,-34.50596614757776,2.3651211116224524,1.7750260979786514
1782941974491567000,6.481567138671875,-30.569094316160676,0.3511677457116544,1.4249706974230705
1782941974501552000,6.49155224609375,-25.70528533399105,-0.831350578393042,0.7273240944683551
1782941974511537200,6.501537109375,-19.622657026410103,-1.6455352101907132,-0.05050157702406868
1782941974521522000,6.51152197265625,-13.371398829829692,-2.5080945813179016,-0.8529623254161327
1782941974531507000,6.5215068359375,-8.31482855696678,-3.6637247523665426,-0.9453689525652677
1782941974541492000,6.531491943359375,-4.725989241975546,-4.3685885932236905,-0.6571465425230563
1782941974551477000,6.54147705078125,-1.825510961329937,-5.0275300563395025,-0.0636798239564523
1782941974561462300,6.551462158203125,0.9177689249128103,-5.743439022824168,0.16294713065531105
1782941974571447000,6.561447021484375,3.9286563762575386,-6.278799698978662,-0.37496713897213335
1782941974581432000,6.57143212890625,6.866032016667723,-6.371397318655252,-1.0201267449729143
1782941974591417000,6.5814169921875,9.586274141672254,-6.141439392989874,-1.789751811815053
1782941974601402000,6.591402099609375,11.899596092474459,-5.350489506307244,-2.312663633023947
1782941974611387100,6.60138720703125,13.318766140794754,-4.200884879158437,-2.0197461239680647
1782941974621372000,6.611371826171875,14.236956505990028,-3.332499286095798,-2.345005521441251
1782941974631357000,6.62135693359375,15.086954209446906,-2.859204897753894,-2.139620019235462
1782941974641342200,6.63134228515625,15.391153429365158,-2.556742292369902,-2.3127166783854363
1782941974651327200,6.6413271484375,15.430365495812891,-2.095020560660958,-2.3970083881400526
1782941974661312000,6.65131201171875,15.165441470706462,-1.6049556547820567,-2.575640177324414
1782941974671297500,6.661297607421875,14.428337155979872,-1.2202936357475815,-2.580230427724123
1782941974681282600,6.671282470703125,14.017747937875985,-1.0696728661693633,-1.8939939843170344
1782941974691267600,6.681267578125,13.375706756156681,-0.7559391443822533,-1.1289807221192867
1782941974701252400,6.69125244140625,12.656364892613887,-0.6254299463972449,-0.785810404902324
1782941974711237400,6.7012373046875,12.119486213111877,-0.8567746502459048,-0.5216713926937431
1782941974721222400,6.711222412109375,11.87603869127631,-1.1348957183167339,-0.29574001913070674
1782941974731207400,6.72120751953125,11.898542784029244,-1.2962366193518042,-0.19013086912445723
1782941974741192700,6.731192626953125,11.90528465950489,-1.3405702665969728,-0.19099230825938282
1782941974751177500,6.741177490234375,11.848436398601532,-1.3465844123199582,-0.31514621893353756
1782941974761162500,6.75116259765625,11.872705747461318,-1.4214295176848768,-0.8102855054672807
1782941974771147500,6.7611474609375,11.823624613428116,-1.4905740733206272,-1.3410200561910868
1782941974781132500,6.771132568359375,11.68051495013237,-1.2796120861567557,-1.0121889377109705
1782941974791117300,6.781117431640625,11.454559830367565,-0.7924702281177043,-0.6829021844178438
1782941974801102300,6.791102294921875,11.095320860272645,-0.3363698434218764,-0.3960523779030889
1782941974811087400,6.80108740234375,10.602158572900295,-0.06906372721819207,-0.1811282821752131
1782941974821072600,6.81107275390625,10.189002134656906,-0.021451204432826488,0.022370237240195275
1782941974831057700,6.8210576171875,9.943077409052849,-0.04048075750956777,0.32743184614144266
1782941974841042400,6.83104248046875,9.873907426714897,0.07556871606488712,0.7419003168314695
1782941974851027500,6.84102734375,9.96006712229848,0.26963448608601465,0.6913255101744085
1782941974861012500,6.851012451171875,10.116513237029313,0.33616416478194294,0.35103513230793176
1782941974870997500,6.86099755859375,10.096568181109427,0.38272728811223056,0.09155475956015288
1782941974880982300,6.870982177734375,9.89697032239437,0.5259757388241588,0.09285656287372111
1782941974890967300,6.88096728515625,9.899745632326603,0.4962271548356861,0.08768774540107696
1782941974900952600,6.89095263671875,10.05878000998497,0.4489612535309046,0.034489768899884074
1782941974910937600,6.9009375,9.984947881054877,0.7283442312963306,0.08766679394459351
1782941974920922600,6.910922607421875,9.741668117001652,1.2406082556322215,0.1814607472662814
1782941974930907400,6.920907470703125,9.260501972371339,1.7056848507270217,0.33609789461269973
1782941974940892400,6.930892333984375,8.644566122767328,1.7508575791448353,0.5071445258976891
1782941974950877400,6.94087744140625,8.416967327448726,1.7066059110946952,0.33622561264559625
1782941974960862500,6.950862548828125,8.371792553204298,1.794894581530988,0.08607545136623083
1782941974970847500,6.960847412109375,8.040214912495017,1.9302287885196505,0.011923442832008004
1782941974980832500,6.97083251953125,7.750604189899564,1.9312560857407748,0.8054513633091003
1782941974990817500,6.980817626953125,7.346207396695017,2.0404931439206004,1.4884427603803574
1782941975000802600,6.990802490234375,6.06846943384707,2.561742292614281,1.531674291602522
1782941975010787600,7.00078759765625,4.175875817847252,2.8711995791912077,1.189210076828301
1782941975020772400,7.0107724609375,2.970661239418387,1.8942467900343238,0.3237003314629197
1782941975030757400,7.02075732421875,2.1846225056529045,-0.4172783404789865,-0.0998050668373704
1782941975040742400,7.030742431640625,1.3885615595668555,-3.450072941596806,-0.2782433792762458
1782941975050727400,7.0407275390625,1.411356159698963,-4.969716165274382,-0.6083489016063511
1782941975060712400,7.05071240234375,-0.6179875214368105,-3.002234773811698,-0.9642940908528864
1782941975070697500,7.060697509765625,-3.2488936589092012,0.020180179850012064,-1.1970774492025376
1782941975080682500,7.0706826171875,-6.010830899348854,2.7970921404510736,-1.8647329646497963
1782941975090667500,7.08066748046875,-11.065525441467761,5.79597292765975,-1.4715776964277028
1782941975100652500,7.090652587890625,-17.78061110986471,7.877443101873993,1.1680795374508945
1782941975110637300,7.10063720703125,-23.1997439442873,7.385698864606022,4.9131052202582355
1782941975120622300,7.110622314453125,-26.848168251669406,4.916238257586956,5.576092743894457
1782941975130607400,7.120607421875,-26.322479659223553,1.655410999777913,2.65479846971333
1782941975140592600,7.130592529296875,-23.98229951211214,0.8750704776540398,-0.012594035569950937
1782941975150577700,7.14057763671875,-21.219729818987844,1.6127409018307923,-2.82249955343008
1782941975160562400,7.1505625,-18.09651011992693,2.428652211290598,-4.745560203886032
1782941975170547500,7.16054736328125,-16.37482427473068,2.730999081340432,-6.252987212330103
1782941975180533500,7.170533447265625,-15.591560266375541,2.9134456065073606,-6.773133368217945
1782941975190518300,7.180518310546875,-15.152954914098977,3.114653238506615,-5.691694222539663
1782941975200503600,7.190503662109375,-14.846671289122105,2.999968582445383,-3.5282530366033313
1782941975210488600,7.200488525390625,-14.494203420597314,2.2329563284501432,-1.2746566557064651
1782941975220473600,7.2104736328125,-13.155768704724311,1.1004589765120296,0.18520495702959597
1782941975230458600,7.220458740234375,-11.212446187484264,0.5430806394146755,1.2072216804675757
1782941975240443400,7.230443359375,-9.30276232047379,0.3343768795063719,1.8194617442935703
1782941975250428400,7.240428466796875,-7.433424492377043,0.2835326082581654,1.9576115932248532
1782941975260413400,7.250413330078125,-5.917050791889428,0.2371958044970408,1.593490111785382
1782941975270398500,7.2603984375,-4.7025125047981735,0.027273462579213082,0.9425274455290287
1782941975280383500,7.270383544921875,-3.7322564368009563,-0.374484579619579,0.20260553436474874
1782941975290368500,7.280368408203125,-2.848160648909211,-0.8887802924461662,-0.3633361032154411
1782941975300353500,7.290353515625,-1.9272154320478438,-1.383480018518865,-0.7425368611693381
1782941975310338600,7.300338623046875,-0.894775587338209,-1.6577768521264193,-0.9338977835454046
1782941975320323600,7.310323486328125,0.17631167567372322,-1.707055700688809,-0.8935111934255808
1782941975330308400,7.320308349609375,1.174293370464444,-1.7637907104760406,-0.8966858779389411
1782941975340293400,7.33029345703125,2.174613152813911,-1.8320121599175034,-0.9545627512376755
1782941975350278400,7.3402783203125,2.930485296374559,-1.7900901038587091,-0.8228907200183719
1782941975360263700,7.350263671875,3.4230776749044654,-1.7955489537864922,-0.685345266721025
1782941975370248400,7.36024853515625,3.8695466001629826,-1.9048095389723776,-0.6248022429529577
1782941975380233500,7.3702333984375,4.252793053311109,-2.1021717475898565,-0.6232383546371013
1782941975390218500,7.380218505859375,4.567331296414137,-2.323931899882853,-0.7731020953029394
1782941975400203500,7.39020361328125,4.778500934979319,-2.327335570846498,-0.8803135659392922
1782941975410188500,7.4001884765625,5.004413384646177,-2.130733971337974,-0.8928213845305144
1782941975420173300,7.41017333984375,5.0179754615306855,-1.844418198634684,-0.865133313268423
1782941975430158300,7.420158447265625,4.716896419459581,-1.6074416263788938,-0.7741521158125251
1782941975440143600,7.4301435546875,4.171135345321893,-1.5436887006536126,-0.6160234548222273
1782941975450128600,7.440128662109375,3.7152854282557963,-1.7721280384495854,-0.5298943735726177
1782941975460113400,7.450113525390625,3.515232226988673,-2.1551608488470313,-0.5665343610426411
1782941975470098400,7.460098388671875,3.385121745997667,-2.522315998893976,-0.6136012691766023
1782941975480083500,7.47008349609375,3.34876740706861,-2.7069232092261313,-0.527498637542501
1782941975490068500,7.480068359375,3.196232328301668,-2.47384598249644,-0.31546671959217637
1782941975500053500,7.490053466796875,2.8028999499469993,-2.041512988487631,-0.3631788668271154
1782941975510038300,7.500038330078125,2.542579619243741,-1.7352840163074432,-0.7199335458256304
1782941975520023600,7.5100234375,2.4308774861246345,-1.4567602126546204,-1.1773508583389223
1782941975530008600,7.520008544921875,2.279374673014879,-1.22906687092036,-1.5084662883639335
1782941975539993600,7.52999365234375,1.8244933087199926,-1.0710990265149622,-1.602076738344878
1782941975549978400,7.539978271484375,1.0338239925444126,-0.961407721761614,-1.3951457602627575
1782941975559963400,7.54996337890625,0.3905950623452663,-0.8570604814499616,-1.2488883004605769
1782941975569948400,7.559948486328125,-0.0026981530427932737,-0.7775169891357422,-1.2519751605600118
1782941975579933400,7.569933349609375,-0.0067681789606809616,-0.45792277781739826,-1.2670986415423453
1782941975589918500,7.57991845703125,-0.47856852935254574,-0.43899099059328434,-1.148557675379142
1782941975599903500,7.589903564453125,-0.9077759386867285,-0.5672238411441445,-0.9580794541217386
1782941975609888500,7.599888427734375,-0.9911638314694166,-0.5887950369611382,-0.9984965124450623
1782941975619873500,7.60987353515625,-0.6633581105142832,-0.5275706068001688,-1.0980782919205725
1782941975629858600,7.619858642578125,-0.03718786714375019,-0.46351738295406103,-1.1220613711848855
1782941975639843600,7.629843505859375,0.3393289854884147,-0.3619083354346454,-1.0452191006533802
1782941975649828400,7.639828369140625,0.33217619112432,-0.18540362140685318,-0.9048401774957776
1782941975659813400,7.6498134765625,-0.0034276363611221313,-0.0013845862261950969,-0.7117699669837951
1782941975669799400,7.65979931640625,-0.4914128133565187,0.15274806393049656,-0.4759379616532474
1782941975679784200,7.6697841796875,-0.9522335045725107,0.17369265228174627,-0.1834533275892958
1782941975689769200,7.679769287109375,-1.2083411860167979,0.011478840869665146,0.059569210299849504
1782941975699754200,7.689754150390625,-1.454072434875369,-0.1999916803382337,0.20882899372316896
1782941975709739500,7.699739501953125,-1.5999223367899655,-0.3686635087832808,0.3499680875983089
1782941975719724500,7.709724609375,-1.3919582162678241,-0.4975329767372459,0.3371443349257111
1782941975729709300,7.719709228515625,-1.044765073275566,-0.5992201309941708,0.2896178099233657
1782941975739694300,7.7296943359375,-0.6812444803386927,-0.7209216800801456,0.41822606965787706
1782941975749679400,7.739679443359375,-1.0469652136683463,-0.6486092349980026,0.4006185898400843
1782941975759664400,7.749664306640625,-1.6245663641810417,-0.30563181000463663,0.4005702937189489
1782941975769649200,7.759649169921875,-1.8759207136183975,0.04887107147909701,0.49919484553486104
1782941975779634200,7.76963427734375,-2.3816391157031056,0.10219546910524367,0.43583625288940964
1782941975789619500,7.779619384765625,-2.4331214656591413,0.3182233613565564,0.809717569386214
1782941975799604500,7.7896044921875,-0.9991010542094707,0.8780714130356907,1.3478440569922328
1782941975809589500,7.799589599609375,-0.903878931248188,1.2863409560203551,1.2163152336359024
1782941975819574300,7.80957421875,-1.4257774837613104,1.4255106495186685,0.9688504389829933
1782941975829559300,7.819559326171875,-0.565255463680625,1.2221397020056843,0.5821883321724832
1782941975839544300,7.82954443359375,0.08437982642948627,0.832118567090854,0.03129552116952836
1782941975849529300,7.839529296875,0.6809563110470771,0.3532305234603584,-0.44187692129313944
1782941975859514000,7.84951416015625,1.4211656060516833,-0.014044015182554721,-0.6645528001915663
1782941975869499400,7.85949951171875,1.956986300933361,-0.09141125943623482,-0.6190586577996611
1782941975879484400,7.869484375,2.1685306180298327,0.10146174800321459,-0.37789939303174613
1782941975889469400,7.879469482421875,2.0478350311160085,0.4092230443172157,-0.06974789182376116
1782941975899454500,7.889454345703125,1.6487316681444644,0.6016657705806195,0.24060228847227988
1782941975909439200,7.899439208984375,1.0849567984104156,0.5043844500672072,0.5394176599277183
1782941975919424300,7.90942431640625,0.5240887560337781,0.27312260219641027,0.6324898748461156
1782941975929409300,7.9194091796875,0.26958617169857024,0.14393347383402288,0.5856988610440865
1782941975939394300,7.929394287109375,0.3683259473919868,0.10176200959142297,0.6194355282880365
1782941975949379300,7.93937939453125,0.5622042594164609,0.1216827713202685,0.8056251855060458
1782941975959364400,7.9493642578125,0.6552981381773948,0.16016999409217386,0.9809656780600547
1782941975969349400,7.959349365234375,0.7270750881433486,0.2112467954546213,1.1279603660956024
1782941975979334400,7.96933447265625,0.5890443355470896,0.23152426166664808,1.253447863461077
1782941975989319400,7.9793193359375,0.4223509675681591,0.2515638274695724,1.355156425832212
1782941975999304200,7.98930419921875,0.3950654857575893,0.29938586481977253,1.4948235474586486
1782941976009286400,7.999286376953125,0.39454467675387855,0.29421646282523867,1.4908053978584705
1782941976019271400,8.009271484375,0.46530280506610866,0.3860885447062552,1.5768454125851392
1782941976029256400,8.01925634765625,0.5582482152670621,0.4698604683704674,1.549361485593021
1782941976039241200,8.0292412109375,0.6099743108510971,0.5230650390092283,1.442468214060366
1782941976049226200,8.039226318359376,0.7598954077273606,0.5227146546689793,1.353465550135821
1782941976059211300,8.049211181640626,0.8299000873237847,0.48602483670786023,1.3278779582843183
1782941976069196500,8.059196533203124,0.7706096939653158,0.4472021349038928,1.2472234359882772
1782941976079181300,8.069181396484375,0.5850953056603669,0.414637982038036,1.198731792280823
1782941976089166300,8.079166259765625,0.3530336857140064,0.41632220879793164,1.2927134136617182
1782941976099151400,8.0891513671875,0.185500944301486,0.4776218961521983,1.4451188746996224
1782941976109136400,8.099136474609375,-0.13021978658437727,0.5628895382668823,1.340977824484557
1782941976119121400,8.109121337890626,-0.38929099400937556,0.5727938963614404,1.188380128810182
1782941976129106200,8.119106201171874,-0.4349637809038162,0.5335122352762147,1.0747492195855826
1782941976139091200,8.12909130859375,-0.20248656589388847,0.46795196786802257,0.926046339392662
1782941976149076500,8.139076416015625,0.25430384689271446,0.3628036037739366,0.7916368460334837
1782941976159061500,8.1490615234375,0.6371119086235761,0.3101069095920771,0.6030252223655581
1782941976169046500,8.159046630859375,0.8298153316497803,0.28261905534351245,0.4895805564280599
1782941976179031300,8.16903125,0.8842202910542487,0.28507452220423146,0.6305147753808648
1782941976189016300,8.179016357421874,0.7402642400622368,0.2868520350044593,0.8200552773967384
1782941976199001300,8.18900146484375,0.5365484246343374,0.263867666187603,0.8895629672564566
1782941976208986400,8.198986328125,0.4271995766431093,0.2444129510679282,0.812283620481938
1782941976218971100,8.20897119140625,0.41477673292160033,0.2528038175933063,0.738283003117144
1782941976228956400,8.218956298828125,0.4198439531832933,0.21654276470458134,0.7014969947725535
1782941976238941400,8.22894140625,0.4233101679891348,0.12356900519197805,0.5764192107191309
1782941976248926500,8.238926513671874,0.3489811954528093,0.04997017356110736,0.41126934585515407
1782941976258911500,8.248911376953124,0.26923662760853767,0.0376740066928789,0.45809879197143016
1782941976268896300,8.258896240234375,0.1529068346887827,0.06123750883825123,0.5650985560858622
1782941976278881300,8.26888134765625,0.09770634099245071,0.09076954573290422,0.6263087750583887
1782941976288866300,8.2788662109375,-0.005844634374976158,0.08550525026284157,0.6885428937185555
1782941976298851300,8.288851318359375,-0.2247141797930002,0.05414205241827294,0.6616827977132052
1782941976308836400,8.29883642578125,-0.3057429422289133,-0.00046228374950587747,0.593072714280337
1782941976318821400,8.3088212890625,-0.2303261744558811,-0.07749479788979514,0.5230229534331708
1782941976328806400,8.318806396484375,-0.12988310197591782,-0.1473472825991921,0.37818131524566556
1782941976338792400,8.32879248046875,0.007927870389819144,-0.15810595596814528,0.2776591496475041
1782941976348777200,8.338777099609375,0.048454526567459105,-0.15025158920595422,0.2785154376832768
1782941976358762200,8.34876220703125,-0.02183130805790424,-0.13870116267111152,0.29580749487634744
1782941976368747300,8.358747314453124,-0.17722294529974458,-0.12913655792493373,0.3234009101249277
1782941976378732500,8.368732666015624,-0.3787812904328108,-0.1197688639903441,0.35685112511031325
1782941976388717300,8.37871728515625,-0.6064391224622726,-0.10316305376207456,0.3382196725396439
1782941976398702300,8.388702392578125,-0.8988052812457085,-0.06431773826749995,0.32817386014778166
1782941976408687400,8.398687255859375,-1.2151754159510135,-0.0344393538868986,0.3543918223246932
1782941976418672400,8.40867236328125,-1.4336463174402714,-0.0637858416141942,0.33160668414067473
1782941976428657400,8.418657470703126,-1.572183265992999,-0.1690549825437367,0.26687862977292387
1782941976438642200,8.42864208984375,-1.6300661306411026,-0.307633724411577,0.1594123623915948
1782941976448627200,8.438627197265625,-1.6591379113465548,-0.40668753449022765,0.10583914110353215
1782941976458612500,8.448612548828125,-1.6397347072184085,-0.4590862686388194,0.13660028140172362
1782941976468597500,8.458597412109375,-1.5176193166345358,-0.4014488301191479,0.20747704939125106
1782941976478582300,8.468582275390625,-1.2952327030062674,-0.12812538072154855,0.31702936579901725
1782941976488567300,8.4785673828125,-1.1784756245851515,0.27415901430575174,0.45597208214104173
1782941976498552300,8.48855224609375,-1.0732651915729046,0.5244562011066823,0.4676718357523903
1782941976508537300,8.498537353515625,-0.8578209444284438,0.48181350262314077,0.48963082531057295
1782941976518522400,8.5085224609375,-0.6098918932646512,0.3057294982254505,0.4841618193149566
1782941976528507100,8.518507080078125,-0.45373979304432865,0.1400336168512702,0.36090010824017227
1782941976538492400,8.528492431640625,-0.2864788543105125,0.028684324890980495,0.1319671417083591
1782941976548477400,8.5384775390625,-0.11990589784085749,-0.014541886268672533,-0.01718735470958054
1782941976558462500,8.54846240234375,0.05604746591448784,0.013832372592715546,0.017336590454541147
1782941976568447200,8.558447265625,0.14913608397841452,0.05490978538775816,0.08781235816143453
1782941976578432300,8.568432373046875,0.16402444103062153,0.06421747449710964,0.017500768040306865
1782941976588417300,8.578417236328125,0.2826367919296026,0.007730119328014552,-0.11270641479082405
1782941976598402300,8.58840234375,0.6286410173982382,-0.0007772862491197884,-0.20336963233873248
1782941976608387300,8.59838720703125,2.1026199297487733,0.1987450960769318,-0.07207443507518618
1782941976618372400,8.608372314453124,2.9884599309593436,0.42460093845203517,0.623486411114037
1782941976628357400,8.618357421875,0.4255605772644281,0.2895217656703666,0.7362522279419005
1782941976638342400,8.62834228515625,0.356426835283637,0.058202013599872586,0.9314331469975411
1782941976648327400,8.638327392578125,-0.0026969839990139007,0.0030235856048762798,0.7252380819745361
1782941976658312400,8.6483125,-0.02045592805147171,-0.088771485517174,0.34418431656509635
1782941976668297200,8.658297119140625,0.1819680940002203,-0.1087763088002801,0.34238497552555053
1782941976678281200,8.66828125,0.38609249022901054,0.06250760183930397,0.07686510341782123
1782941976688266200,8.678266357421874,0.7616793685346841,0.19208003043085337,-0.3007840046472847
