time,seconds_elapsed,z,y,x
1782941987187852000,0.07285205078125,0.25141104806065556,-1.3666761832341552,0.4684129729758948
1782941987197837000,0.082837158203125,0.2684866860240698,-1.3966329300805926,0.5029212091142311
1782941987207823400,0.0928232421875,0.33918519310355183,-1.4261431022033095,0.5765775430859997
1782941987217808100,0.10280810546875,0.3429202879786491,-1.427142780765146,0.551960988223739
1782941987227793200,0.112793212890625,0.4236702334731817,-1.3629226759195328,0.48390411822684104
1782941987237778200,0.122778076171875,0.555954551371932,-1.185305982061848,0.46536275509241964
1782941987247763200,0.13276318359375,0.5711112039715052,-0.9509342585422098,0.4431816837487742
1782941987257748200,0.142748291015625,0.4001175084501505,-0.7046614501528442,0.36878541812989857
1782941987267733000,0.15273291015625,0.12390402756631373,-0.50965259972848,0.3205960087720304
1782941987277718000,0.162718017578125,-0.16324293526411054,-0.45550636432543395,0.42291791726853695
1782941987287703300,0.172703369140625,-0.3895879311293363,-0.5291631001560018,0.6533044801421463
1782941987297688300,0.182688232421875,-0.5293687422633171,-0.6187197812341153,0.8645670576877892
1782941987307673000,0.192673095703125,-0.4762035537868738,-0.5852483042649924,0.9438879932925105
1782941987317658000,0.202658203125,-0.3423831123620272,-0.45175819077305496,0.9066745533160865
1782941987327644200,0.21264404296875,-0.34008360324800013,-0.3736603672225028,0.8297233425173908
1782941987337629200,0.222629150390625,-0.23429916974008083,-0.3770078510195017,0.7306432289537041
1782941987347614200,0.2326142578125,-0.04058803097605705,-0.3697024233769625,0.6983700218584388
1782941987357599200,0.24259912109375,0.006017652854323386,-0.3625504327304661,0.7573151819758117
1782941987367584300,0.252584228515625,0.022854221364855765,-0.39821284387260675,0.8098391499392688
1782941987377569300,0.2625693359375,0.1055319200515747,-0.4139443737506866,0.8906234360948204
1782941987387554000,0.272553955078125,0.1844692631661892,-0.3820361275102943,0.9954722692530602
1782941987397539000,0.2825390625,0.2302127772092819,-0.19582593896090983,0.947654360088706
1782941987407524000,0.292524169921875,0.26947277445197104,0.03942497854605317,0.881527179512754
1782941987417509000,0.302509033203125,0.22532383612394333,0.10299246470183133,0.8533536628212779
1782941987427494400,0.312494384765625,0.18183774561882018,0.02018529441654682,0.8168972517572343
1782941987437479200,0.322479248046875,0.1324503221154213,-0.17955818331427872,0.6646818333987147
1782941987447465200,0.33246533203125,0.3278267637431621,-0.2693983940415084,0.6902566388338803
1782941987457450200,0.3424501953125,0.3401940778851509,-0.28275647278651594,0.9866510302200913
1782941987467435000,0.35243505859375,0.06598667612671852,-0.30474165623188015,1.0943291685201226
1782941987477420000,0.362419921875,0.1817676029920578,-0.3006871201440692,1.0238236997947097
1782941987487405000,0.372405029296875,0.4230757747113704,-0.23804493213966488,0.6656271514248102
1782941987497390300,0.382390380859375,0.7675392004787921,-0.07538944137468934,0.2742288646715693
1782941987507375400,0.392375244140625,0.9857517432928085,0.20335881868377326,-0.0026400661800056696
1782941987517360000,0.402360107421875,0.7983452576309442,0.7578621483340859,-0.45701059487592427
1782941987527345200,0.41234521484375,0.42300446304082867,1.254250850407034,-0.8398378362312913
1782941987537330200,0.422330078125,0.4311246411323547,0.7676163573682308,0.06232671058075502
1782941987547315200,0.432315185546875,0.5513607938408851,0.18644348584860562,0.3541037991635501
1782941987557301200,0.44230126953125,0.804559894362092,-0.21515388589575885,0.17604544421928003
1782941987567286300,0.452286376953125,0.8179314171105623,-0.41274098931029435,0.06049706573449075
1782941987577271300,0.462271240234375,0.7077484563827514,-0.6418637793257832,0.024950499524362384
1782941987587256300,0.47225634765625,0.6237181740432978,-0.8719235579304396,0.13194764242344534
1782941987597241000,0.482240966796875,0.17438859865665435,-1.0211370910592377,0.7114102668259292
1782941987607226000,0.49222607421875,0.27290216437876225,-0.9953351258046924,1.2430074257284403
1782941987617211100,0.502211181640625,0.8375497252941131,-0.869395062366128,1.4832489911295472
1782941987627196200,0.512196044921875,0.8528671214133501,-0.7717261307746172,1.5630667703405021
1782941987637181200,0.52218115234375,0.5682979001164437,-0.6626438247650861,1.3901555507600307
1782941987647166200,0.532166259765625,0.6405787079513072,-0.2564683314502239,1.1466569563243538
1782941987657151200,0.542151123046875,0.05778232688307762,0.10084551580101252,0.6673403120182454
1782941987667136300,0.55213623046875,1.2057827337056397,0.21544103227406738,-0.9873594707503914
1782941987677121300,0.562121337890625,1.7585393658190964,-0.2836629201069474,-1.4697439051292835
1782941987687107300,0.572107421875,0.2892956652969122,-0.6480752011865377,-0.7070850971031933
1782941987697092400,0.58209228515625,-0.45455520108044145,-0.5689626476354896,0.15662355365697295
1782941987707077400,0.592077392578125,0.09160042533278465,-0.444170731318742,0.6495400130420923
1782941987717062400,0.6020625,0.534257098826766,-0.1515580504283309,1.1903336740307509
1782941987727047400,0.61204736328125,0.5507143126308918,-0.2737665261231363,1.0550864146731793
1782941987737032400,0.622032470703125,0.6438976232409477,-0.564300354912877,0.24711678493283687
1782941987747017500,0.632017578125,0.7515127793073654,-0.6736448189899324,-0.09488003152534365
1782941987757002200,0.642002197265625,0.5255974070310593,-0.8280776942022144,0.1977793380510062
1782941987766987300,0.6519873046875,-0.060036243289709086,-1.011013171929866,0.81146638581492
1782941987776972300,0.66197216796875,-0.28964696295261383,-0.8787422980345785,0.7493787629533558
1782941987786957300,0.671957275390625,-0.10013619848787784,-0.8519476684808731,0.15172748871110378
1782941987796942600,0.681942626953125,-0.039275194811820985,-0.8584224174529314,-0.5352037320271134
1782941987806928400,0.691928466796875,-0.26678397375941276,-0.34127924277335403,-0.8258339338634163
1782941987816913400,0.701913330078125,-0.8872434382677078,0.2101666720677167,-0.5594749075178057
1782941987826898400,0.7118984375,-2.0670213776230812,-0.28158260670155283,0.3852955676976591
1782941987836883200,0.72188330078125,-2.048507231289148,0.12983743620328606,-0.2859937376746908
1782941987846868200,0.7318681640625,-4.205929010805487,0.8553191176753491,-0.3388158848671242
1782941987856853500,0.741853515625,-4.815599370273947,-0.3703651250693947,0.6653239306945353
1782941987866838500,0.751838623046875,0.10597732573151587,-0.08470193452332168,-0.8811867685772478
1782941987876823600,0.761823486328125,0.3480816162645817,0.24027174134366214,-1.598498733727634
1782941987886808300,0.771808349609375,1.106367835229635,-0.8820122596159576,-0.8650675545558333
1782941987896793300,0.78179345703125,-0.17103285848796368,-0.7692579140301793,-1.7935963584139942
1782941987906778400,0.7917783203125,-5.150982833006978,0.045743733238801355,-0.06319733766913414
1782941987916763400,0.801763427734375,-2.626054605787992,0.24613968352898954,0.11661233618818223
1782941987926749400,0.81174951171875,-2.289597376343608,0.23248225651122628,-0.4831576837737113
1782941987936734500,0.821734375,-1.9352508544653653,0.18171740717478096,-1.450292039553821
1782941987946719500,0.831719482421875,-1.8435288485795258,0.7037946041904389,-2.2044087177492675
1782941987956704300,0.841704345703125,-1.9976333686202763,0.9853132057450711,-2.051732330815494
1782941987966689300,0.851689208984375,-2.13498432225883,0.9484213989384472,-1.95211109611243
1782941987976674300,0.86167431640625,-2.3656892668992278,0.7881658089220523,-1.967958069063723
1782941987986659300,0.871659423828125,-2.460163201841712,-0.0834291929074563,-2.2994236277006563
1782941987996644600,0.88164453125,-3.3069846133500334,-0.6862998640321195,-2.8899726687222715
1782941988006629400,0.89162939453125,-2.601650232371688,-1.4171803358078001,-2.932511541505158
1782941988016614400,0.901614501953125,0.17439152126610277,-0.9343218541763723,-0.44792664978615937
1782941988026599400,0.911599365234375,1.165531971859932,0.36085225051045416,1.2911769978746772
1782941988036584400,0.92158447265625,2.01170748668015,0.7640104418307543,0.7749820638306438
1782941988046570200,0.9315703125,2.6451544430553913,0.2998476005800068,-0.47806379470080135
1782941988056555300,0.94155517578125,2.8896617030769587,-0.38825405217707154,-1.1137427479118107
1782941988066540500,0.95154052734375,3.280350288924575,-1.0184032821811735,-1.08903325406909
1782941988076525600,0.961525634765625,3.6710377057284114,-1.077454021564871,-0.8569938459545373
1782941988086510300,0.97151025390625,3.3412317508667706,-0.4664395540110767,-0.4499938845142722
1782941988096495400,0.981495361328125,2.6144050845265387,0.2630037245683372,0.5041179811507464
1782941988106480400,0.99148046875,1.7390087359189985,0.6274753346197307,1.2007931087248027
1782941988116465400,1.00146533203125,0.5698457140803337,0.6621393823742866,1.3983169376447795
1782941988126450200,1.0114501953125,0.43592882654368875,0.4906700321651995,1.3618185140699148
1782941988136435200,1.021435302734375,1.0581021092325449,0.2439014030829072,0.9206191997773945
1782941988146420500,1.03142041015625,1.6607435929775236,0.02617942026481032,0.8780009781479835
1782941988156405500,1.041405517578125,1.42368957157135,0.050180619707703586,1.659557744193822
1782941988166390500,1.051390625,-0.07493921338915824,0.17483393127135932,2.38232607505396
1782941988176376300,1.061376220703125,-0.7277315062254667,-0.19899061353690922,2.504939916679263
1782941988186361300,1.071361328125,0.7428700386464595,-0.6664763886652887,2.3790185579411682
1782941988196346400,1.081346435546875,2.440091304671764,-0.7042279541064054,2.0500505152083934
1782941988206331400,1.091331298828125,2.4293168126791715,-0.3945793096758425,1.8857231457084416
1782941988216316400,1.10131640625,2.1440321365892885,-0.2794496863260865,2.1290277519419787
1782941988226301400,1.111301513671875,2.530591075286269,-0.6345059639088809,2.5026953526228666
1782941988236286500,1.121286376953125,2.9974650751918555,-1.1384513649716972,2.675750364588201
1782941988246271500,1.131271484375,3.2034137642383573,-1.4172984092295169,2.592239137686789
1782941988256256300,1.14125634765625,3.2918425737977026,-1.4897177487522362,2.4855761677786705
1782941988266241300,1.1512412109375,3.388005192479491,-1.5763823251180349,2.3809699842698873
1782941988276226300,1.161226318359375,3.5381203506231307,-1.7449290658786891,2.1881118090733884
1782941988286211600,1.171211669921875,3.6994828789681193,-1.955658997852355,1.964543584445119
1782941988296197400,1.181197265625,3.7331332196354863,-2.2090208877198396,1.8835238820984959
1782941988306182400,1.191182373046875,3.569849367839098,-2.3983013505600392,1.871716247665882
1782941988316167400,1.20116748046875,3.4948511177390813,-2.5100784486114978,1.7333379968062042
1782941988326152400,1.21115234375,3.389743560579419,-2.659999545487761,1.6266839408569036
1782941988336137200,1.22113720703125,3.179288792285323,-2.8193507340103388,1.7009728736437857
1782941988346122200,1.231122314453125,3.057068772283196,-3.0741105079770086,1.8539355301730334
1782941988356107500,1.241107421875,2.882079285123944,-3.2095021442413327,1.858314329779148
1782941988366092500,1.251092529296875,2.5619524282336235,-2.9890275017142294,1.6087077007919548
1782941988376077300,1.261077392578125,2.186902141022682,-2.512128951400518,1.1877332822740077
1782941988386062300,1.271062255859375,1.7008815420985222,-2.224689727625251,0.7200865444302559
1782941988396047400,1.28104736328125,0.9912374812275171,-2.170826766142994,0.3944084831535816
1782941988406032400,1.291032470703125,0.029182839864492414,-2.105278773694485,0.1956110175685957
1782941988416018400,1.301018310546875,-1.2418489033430815,-1.9526883114784954,0.18841153451856224
1782941988426003500,1.31100341796875,-2.39248550388813,-1.8488013821549714,0.11006380046070553
1782941988435988500,1.320988525390625,-3.3105396754831076,-1.8231291807599366,-0.20480446918113157
1782941988445973500,1.330973388671875,-4.438281138131022,-1.5447672896705567,-0.40123935208693146
1782941988455958300,1.340958251953125,-5.342843959990144,-1.0300085259094833,-0.30232129721716045
1782941988465943300,1.350943359375,-6.120206050825119,-0.06921199484877288,-0.5692190335493534
1782941988475928300,1.36092822265625,-7.1826938277959815,0.6582366027820855,-0.4666147644475102
1782941988485913300,1.370913330078125,-7.883129915338754,0.6430496281094848,0.24359964365735648
1782941988495898400,1.3808984375,-8.857049766540527,0.5010678728651256,0.9114695325076579
1782941988505883400,1.39088330078125,-10.30380223379135,0.37566308534704146,1.9187521396070717
1782941988515868400,1.400868408203125,-12.311983299911022,0.5103084332887083,3.123933108027279
1782941988525853400,1.410853515625,-15.817029063928127,1.1370412059128283,4.302052174259722
1782941988535839200,1.420839111328125,-20.67569892964363,2.2263810417130587,4.615148986382782
1782941988545824300,1.43082421875,-25.179075348019598,4.73203349057585,3.911227394811809
1782941988555809500,1.4408095703125,-28.064118743646144,8.928557836437225,1.5896492184482514
1782941988565794600,1.450794677734375,-28.10251247944832,12.297933731770515,-1.2098159347444772
1782941988575779300,1.460779296875,-25.925477067923545,12.783804693090914,-2.363638617979735
1782941988585764400,1.470764404296875,-22.478312999510763,11.589070007622242,-2.4581530310630795
1782941988595749400,1.480749267578125,-18.68458122652769,9.400148927992582,-1.714361347527057
1782941988605734400,1.490734375,-14.995647214102744,6.376080508035421,-0.2432419162608683
1782941988615719400,1.500719482421875,-11.766590474563836,3.580384205856919,1.0254016166359186
1782941988625704200,1.5107041015625,-8.85510330864787,1.365456870572269,2.118096315822005
1782941988635689500,1.520689453125,-6.361349971893429,0.13299728847369552,2.288536615244299
1782941988645674500,1.530674560546875,-4.472705385780334,0.40574740409590304,1.7043452726863324
1782941988655659500,1.540659423828125,-2.9773487543582915,0.8827317329969256,0.9313657077845185
1782941988665645300,1.550645263671875,-1.2667857762008905,0.6586740443512797,0.2770672481689602
1782941988675630300,1.56063037109375,0.5918178919136524,0.41707963956911115,0.008658303556218742
1782941988685615400,1.570615478515625,2.6052181539863346,0.462007014923729,-0.2303835306663066
1782941988695600400,1.580600341796875,4.747383327659964,0.36117381061501797,-0.5092711261302233
1782941988705585200,1.590585205078125,6.6649740222722285,0.07825418315604328,-0.5820785151224583
1782941988715570200,1.600570068359375,8.17872263495326,-0.2981441941956058,-0.4992839851230383
1782941988725555200,1.61055517578125,9.481870933389663,-0.6727133833587169,-0.6474553157225251
1782941988735540200,1.620540283203125,10.526551835513114,-0.9512729889772832,-0.9823277601934969
1782941988745525200,1.630525146484375,11.308735647416114,-1.01104298254624,-1.4453919925525784
1782941988755510300,1.64051025390625,11.760080069756507,-1.0329300393793732,-1.672176402748376
1782941988765495300,1.650495361328125,12.018884150677918,-0.9859143865086137,-1.503599559110403
1782941988775481300,1.6604814453125,12.001803252017497,-1.2128845285348593,-1.452001327689737
1782941988785466000,1.670466064453125,11.952890460288524,-1.392348092368245,-1.5546667523942888
1782941988795451100,1.680451171875,11.903561488974093,-1.3316072079405188,-1.610385132484883
1782941988805436400,1.6904365234375,11.797162138438225,-1.1932006808344273,-1.5786081844739615
1782941988815421400,1.70042138671875,11.739947966831922,-1.060429383136332,-1.476508430828154
1782941988825406200,1.71040625,11.708747357404231,-0.8734031289637089,-1.421035842192173
1782941988835391200,1.72039111328125,11.607468418622016,-0.5811691817251965,-1.3725586654014885
1782941988845376300,1.730376220703125,11.568068136125802,-0.36999135985355824,-1.265011167743802
1782941988855361300,1.740361328125,11.44645368080139,-0.11485109866932033,-1.2159196584470569
1782941988865346300,1.75034619140625,11.334466301000118,0.1434948632210493,-1.208618395522982
1782941988875331000,1.7603310546875,11.18154836039543,0.31616482139155266,-1.181017125761509
1782941988885316400,1.77031640625,11.063259834623336,0.3757903284559026,-1.082452998895943
1782941988895301400,1.78030126953125,11.095357100629807,0.33972938298285005,-0.9677436467848718
1782941988905287200,1.790287109375,11.165191099834441,0.2696450622789562,-0.825865717241168
1782941988915272200,1.800272216796875,11.214378616851567,0.1248306774245575,-0.7386503751248121
1782941988925257200,1.81025732421875,11.276141537803412,0.07415010883808136,-0.7196513678833842
1782941988935242200,1.8202421875,11.260116285675764,0.033826354821398855,-0.6433379435315728
1782941988945227300,1.830227294921875,11.311973898684977,-0.08385762918628752,-0.6040985506854951
1782941988955212300,1.84021240234375,11.426402241897582,-0.07668043103329837,-0.5079334477856755
1782941988965197300,1.850197265625,11.424230158555506,-0.016257745709270237,-0.38916166854128237
1782941988975182300,1.860182373046875,11.325599103933571,0.04964987383186817,-0.33367592816278335
1782941988985167400,1.87016748046875,11.26454345446825,0.18471330105513334,-0.358552010744065
1782941988995152100,1.880152099609375,11.106600963699817,0.32439130940176547,-0.47633360990732904
1782941989005137200,1.89013720703125,10.8915623747468,0.37219372873604295,-0.594913665971905
1782941989015123500,1.90012353515625,10.69425934897065,0.3866396757829934,-0.6836050719901919
1782941989025108200,1.910108154296875,10.50792779906392,0.39996275627985595,-0.7265757603190839
1782941989035093200,1.92009326171875,10.422761790692805,0.3922042511075735,-0.651961394970119
1782941989045078300,1.930078369140625,10.169349339681863,0.44540363411456346,-0.5361823678009212
1782941989055063300,1.940063232421875,9.800907656955719,0.5888806694179773,-0.4593757531046867
1782941989065048300,1.95004833984375,9.312046866169572,0.7105126603990792,-0.3804804955661297
1782941989075033000,1.960033203125,8.666120951971411,0.7001736372143029,-0.34741131578758355
1782941989085018000,1.97001806640625,7.9205469150632615,0.7568852661259472,-0.3099718119703233
1782941989095003400,1.98000341796875,7.063852344316244,1.034211968948692,-0.09388108361586928
1782941989104988400,1.989988525390625,6.073556527853012,1.2996909975893796,0.044354178576543925
1782941989114973200,1.99997314453125,4.816064065176248,1.233472120141983,-0.24821685512922703
1782941989124958200,2.009958251953125,3.7844115714520212,0.6303612653195858,-0.36547991031110283
1782941989134943200,2.019943115234375,2.4618951402008533,-0.45688335176706313,-0.07166559854596853
1782941989144929300,2.02992919921875,-0.053358665221929544,-1.8596824032619594,1.4284918572865426
1782941989154914000,2.0399140625,-2.5388649826347827,-3.8272447510063645,3.4403546806588765
1782941989164899300,2.0498994140625,-5.199279538664221,-5.246870141878723,4.488434285309911
1782941989174884400,2.05988427734375,-9.002914866024256,-5.6008349709630005,4.896676355765759
1782941989184869400,2.069869384765625,-12.673028442645073,-5.196548067873716,4.6914548119500274
1782941989194854100,2.079854248046875,-15.485045180505514,-3.8736633878320452,3.9792087518870827
1782941989204839200,2.089839111328125,-17.32874295591116,-2.128993557411432,2.625516845649481
1782941989214824200,2.09982421875,-18.41898149411678,-0.6293545724950731,1.6331981450565158
1782941989224809200,2.109809326171875,-19.481065950983762,-0.4313180448126048,1.9019886363327503
1782941989234794200,2.119794189453125,-20.63319717400074,-0.8825492891021073,3.6422459110081196
1782941989244779300,2.129779296875,-22.470667453193663,-0.7433866829317063,5.708507410174608
1782941989254765300,2.139765380859375,-24.671310534799098,-0.09605422640386968,6.956129636222124
1782941989264750300,2.149750244140625,-26.92459098161459,0.7420338800832629,7.020784771484136
1782941989274735000,2.159735107421875,-28.977740485751628,2.3298117517016825,5.404220511972904
1782941989284720000,2.16972021484375,-30.549136400759217,4.590726785048842,2.4577450347840784
1782941989294705200,2.179705078125,-31.806195148193833,6.675077483135461,0.17223858101591466
1782941989304690400,2.1896904296875,-32.02017925965786,7.3691907973974935,-1.5104880034498869
1782941989314675500,2.199675537109375,-31.260567345046994,7.4964441353917115,-1.8052045247517525
1782941989324660200,2.20966015625,-28.694724339115616,6.7402358917444944,-0.9104236036513
1782941989334645200,2.219645263671875,-25.414787307167053,5.04032699407041,0.38262459492273626
1782941989344630300,2.22963037109375,-21.821848155641554,3.290987418273091,1.3366536776751279
1782941989354615300,2.239615234375,-17.589902660048008,2.373307925209403,1.7134423329859971
1782941989364600000,2.24960009765625,-13.579963254332542,1.6736597731739282,1.612551224477589
1782941989374586400,2.25958642578125,-10.129212559604644,0.9497792432881891,1.0888126701209693
1782941989384571400,2.2695712890625,-7.218104163873195,0.19965433814264832,0.779543307331577
1782941989394556200,2.27955615234375,-4.573256594809889,-0.6381013580523431,0.5507956342387944
1782941989404541200,2.289541259765625,-2.1255618293970824,-1.4939096474841236,0.7337973821356892
1782941989414526200,2.299526123046875,-0.03350011854171753,-2.060167566205561,0.9209086111780256
1782941989424511200,2.30951123046875,1.9844477238327263,-2.3758771911755203,1.0701306929394603
1782941989434496300,2.319496337890625,4.025228160262108,-2.6482886494278906,1.1334442043341695
1782941989444481300,2.329481201171875,5.903888527977466,-2.7481255727082488,0.9670115331180393
1782941989454466300,2.33946630859375,7.364598793432116,-2.76095524366498,0.6712586545057594
1782941989464451300,2.349451416015625,8.449190850183367,-2.6718478041917084,0.1847647937803529
1782941989474436400,2.359436279296875,9.409937916079164,-2.1737290634557604,-0.24801879354016854
1782941989484421400,2.36942138671875,10.15833344014883,-1.6352677909374236,-0.5236742204161361
1782941989494407200,2.3794072265625,10.658646768319606,-1.4808331621594726,-0.6562957709126174
1782941989504392200,2.38939208984375,10.883124216747284,-1.575060136603564,-0.5973017666848376
1782941989514377500,2.39937744140625,10.989411339080332,-1.6968427881017327,-0.3980837741328403
1782941989524362200,2.4093623046875,11.097115342473984,-1.7602927853576837,-0.32241065697856247
1782941989534347300,2.41934716796875,11.130765098619461,-1.9550738914407788,-0.2500685474105179
1782941989544332300,2.429332275390625,11.236706183993816,-2.2434870748147366,-0.1895129564218223
1782941989554317300,2.4393173828125,11.20036762715578,-2.4410063736900685,-0.24054602824039756
1782941989564302000,2.449302001953125,11.17399633758068,-2.3728511213526127,-0.28665201892033215
1782941989574287000,2.459287109375,11.177809758388996,-2.143687122543901,-0.4633283631879836
1782941989584272100,2.469272216796875,11.104777255403995,-1.9376371650800108,-0.5766243048371746
1782941989594257400,2.47925732421875,10.992260298770665,-1.7719463982723653,-0.5065556931590661
1782941989604243200,2.4892431640625,10.888755500632524,-1.5207473855271934,-0.5079635506629944
1782941989614228200,2.499228271484375,10.844176354193687,-1.186988893647492,-0.5346318504232913
1782941989624213200,2.509213134765625,10.820617783951759,-0.8672410992026328,-0.38327874798253175
1782941989634198300,2.5191982421875,10.792031156414746,-0.5537952544461936,-0.31121147330049426
1782941989644183000,2.52918310546875,10.717448501378296,-0.42573242669999595,-0.28186076605580745
1782941989654168300,2.539168212890625,10.66367482561469,-0.42904761566258964,-0.16478428295459596
1782941989664153300,2.5491533203125,10.644767880570887,-0.3967368530359119,-0.05001235046871006
1782941989674138400,2.559138427734375,10.552738416171072,-0.3191393802229315,0.097196637904644
1782941989684123400,2.569123291015625,10.391576378834246,-0.20690562444515526,0.15733520905766635
1782941989694108200,2.579108154296875,10.2272813041687,-0.09358458488732575,0.13989223561920225
1782941989704093200,2.58909326171875,10.10816509540081,-0.01742072507403791,0.12536140503408386
1782941989714078200,2.599078125,9.906434900832176,0.10146021363325416,0.10487054266654885
1782941989724064300,2.609064208984375,9.719248779922724,0.27063801883906125,0.06218396850866265
1782941989734049300,2.61904931640625,9.623881695532798,0.5349709461845458,0.03747136026024818
1782941989744034300,2.629034423828125,9.442174882817268,0.7605863126009702,0.05383368058884516
1782941989754019300,2.639019287109375,9.346586264631151,0.9226742326110601,0.14567379642901943
1782941989764004400,2.64900439453125,9.284667276334762,1.025908835505694,0.15866908800993113
1782941989773989000,2.658989013671875,9.175583216759563,1.0269589290805161,0.16175492519605905
1782941989783974100,2.66897412109375,9.137553053572773,0.9801054079689084,0.24995778051242232
1782941989793959200,2.678959228515625,9.182434982350468,0.9422294124305247,0.31732805648464707
1782941989803944400,2.6889443359375,9.20904651042223,1.0104451627835631,0.3838250932862982
1782941989813929200,2.69892919921875,9.11859174799323,1.1317251254566014,0.4678487266892567
1782941989823914200,2.708914306640625,8.909027206537127,1.32023314261958,0.5271764198508113
1782941989833899300,2.718899169921875,8.615355810374021,1.6393080062389374,0.6802344995785504
1782941989843885000,2.728885009765625,8.18334737214446,1.9427324423924088,0.9540737986769526
1782941989853870000,2.7388701171875,7.402797883445024,1.9805159373417496,1.1833203612025827
1782941989863855400,2.74885546875,6.287398015975952,1.7870669566452502,1.3321844233065843
1782941989873840400,2.75884033203125,5.153412690502405,1.2978915469519794,1.577770710736513
1782941989883825400,2.768825439453125,3.846076877248287,0.718839613109082,1.9899542122945189
1782941989893810200,2.77881005859375,2.1158219411492345,0.3330139571227133,1.9987857535257934
1782941989903795200,2.788795166015625,0.7810323037803173,-0.33631869775652884,1.4739327351212501
1782941989913780200,2.7987802734375,-1.5635387717664242,-2.452122518727183,0.8106940132029354
1782941989923765200,2.80876513671875,-6.069577102828026,-4.523988998293876,0.6411055083043873
1782941989933750300,2.818750244140625,-9.257820770463347,-4.890044078144431,2.7807904094696045
1782941989943735300,2.8287353515625,-13.14439390875101,-5.442713616496325,4.361203159147501
1782941989953721300,2.838721435546875,-20.202818382799624,-7.099510517674684,3.4452658335760233
1782941989963706400,2.848706298828125,-25.179872635877132,-8.675179872217774,1.4960112959384917
1782941989973691100,2.858691162109375,-27.100990335571765,-6.635474956065416,-0.9415905300050973
1782941989983676200,2.86867626953125,-29.495173291027545,-0.5127278424553573,-3.448994790971279
1782941989993661200,2.8786611328125,-28.957191034197805,5.778363036689162,-5.812908864891528
1782941990003646500,2.888646484375,-26.155336793911456,9.08190656967461,-6.4405199547201395
1782941990013631200,2.89863134765625,-23.216900830793378,9.021829994374514,-4.799614157895744
1782941990023616300,2.9086162109375,-19.66884126995802,7.233197103586792,-3.135425977422297
1782941990033601300,2.918601318359375,-15.601253977394103,5.496549836102128,-2.217967725893855
1782941990043586300,2.92858642578125,-11.867884610915183,3.8328754503697153,-1.4695010362841188
1782941990053571300,2.9385712890625,-8.541499716046452,2.0082912484958766,-0.9223666279666125
1782941990063556000,2.94855615234375,-5.932594397979974,0.517854209025763,-1.022203258986026
1782941990073542400,2.95854248046875,-3.8766444494694468,-0.27183237972278146,-1.383031251838058
1782941990083527400,2.96852734375,-2.3305945726424455,-0.682057988678664,-1.7017862358532845
1782941990093512200,2.97851220703125,-1.2583236528038977,-1.1281468285784124,-2.030360018571466
1782941990103497200,2.988497314453125,-0.31551205657124515,-1.5323877005688846,-2.4169223182693123
1782941990113482200,2.998482177734375,0.8205272788226604,-1.687504174131155,-2.797812855941057
1782941990123467300,3.00846728515625,1.79493754388988,-1.6061242601700125,-3.0945123677536843
1782941990133452300,3.018452392578125,2.661415842026472,-1.4178142497971653,-3.272047740003466
1782941990143437000,3.02843701171875,3.395083168041706,-1.31270771555081,-3.2776503823161125
1782941990153422300,3.03842236328125,4.047484415733814,-1.2327289005592466,-3.1376348856434224
1782941990163407400,3.048407470703125,4.70373006389439,-1.2513352552212773,-2.7891940806776283
1782941990173392400,3.058392333984375,5.3211196194380515,-1.4393620647385716,-2.5146979251056907
1782941990183378200,3.068378173828125,5.915412961554527,-1.5120749803803861,-2.2238085608765483
1782941990193363200,3.07836328125,6.268033974814415,-1.4065258169330657,-1.8957501803345977
1782941990203348200,3.08834814453125,6.4537751576125615,-1.2532133240528405,-1.6726032498583197
1782941990213333200,3.098333251953125,6.583044511604308,-1.0031339629873632,-1.4785770537957548
1782941990223318300,3.108318359375,6.5241586073935025,-0.5904767795030027,-1.1640297506034374
1782941990233303300,3.11830322265625,6.2834162528634065,-0.29456472827363755,-0.7838402008078992
1782941990243288300,3.128288330078125,5.84418312407732,-0.1263868573579937,-0.5819521853290498
1782941990253273300,3.1382734375,5.417716537883877,0.12500533987171947,-0.2527450731433928
1782941990263258000,3.148258056640625,5.046955472299456,0.5786974578494206,0.08610007435083389
1782941990273243100,3.1582431640625,4.306120154350996,1.3622918306700884,0.26187669329978525
1782941990283228200,3.168228271484375,3.3715912332952023,2.068856484095752,0.5407158465120941
1782941990293214200,3.178214111328125,2.246228190216422,2.2134031944572925,0.7951581520274281
1782941990303199200,3.18819921875,1.0550438907057047,2.0431014267228544,1.048866736440733
1782941990313184300,3.198184326171875,0.056981531894206995,1.9413440567739306,1.6916645086809992
1782941990323169300,3.208169189453125,-0.9079939653515815,1.7269805906035005,2.443905602262914
1782941990333154300,3.218154296875,-1.9690578469991682,1.2991887471556662,2.805151528266072
1782941990343139000,3.22813916015625,-2.719385800436139,0.8977500731043517,2.9607760974809527
1782941990353124000,3.2381240234375,-3.2057647112786767,0.5437254035916179,2.9473671653315425
1782941990363109400,3.248109375,-3.607115560916066,0.35490985484942794,2.8019474715277553
1782941990373094400,3.258094482421875,-3.688174133968353,0.20594174784906208,2.965528844965994
1782941990383079200,3.2680791015625,-3.4291245538532733,-0.06336487625576555,2.9887197509393095
1782941990393064200,3.278064208984375,-2.9859388880491253,-0.3032235067538917,2.9128993708014486
1782941990403050200,3.28805029296875,-2.405779285225272,-0.5117101167801767,2.877636918762326
1782941990413035300,3.29803515625,-1.6113783813059328,-0.9116059453036636,2.7302985318556425
1782941990423020300,3.308020263671875,-0.5173310984671116,-1.2527809239849448,2.49190011010319
1782941990433005300,3.31800537109375,0.5181903456449508,-1.4762494876310228,2.253711385578662
1782941990442990300,3.327990234375,1.499302738699317,-1.7726025240935384,2.113444982884824
1782941990452975400,3.337975341796875,2.5008885954618454,-2.1409791787594554,2.098517170605063
1782941990462960000,3.347960205078125,3.350673532950878,-2.4476252073079348,2.0519681853979823
1782941990472945200,3.357945068359375,4.155483602681755,-2.635424491679668,1.9894505005560814
1782941990482930200,3.36793017578125,4.871186232939362,-2.804532519584894,1.9709293399594723
1782941990492915200,3.377915283203125,5.491814039751887,-2.9369042235061524,1.9099207445062696
1782941990502900500,3.387900390625,5.976140694239735,-3.1088153261333704,1.7800614617973565
1782941990512886300,3.39788623046875,6.33719694288969,-3.291235840076208,1.6039792109653352
1782941990522871300,3.407871337890625,6.706677905535698,-3.3117499280557032,1.4565988846130669
1782941990532856300,3.417856201171875,7.110155245807767,-3.289350172460079,1.2802334329254925
1782941990542841000,3.427841064453125,7.304547352573275,-3.3289489001378416,1.159960893729329
1782941990552826000,3.437826171875,7.249944824770092,-3.3788235226362944,1.0991183024927973
1782941990562811400,3.447811279296875,7.210826866346597,-3.4134055911958217,1.0222110039010643
1782941990572796400,3.45779638671875,7.199215339007973,-3.478026824188232,0.9115797148838639
1782941990582781400,3.467781494140625,6.9883461446940895,-3.5624738706350323,0.8565159993097186
1782941990592766200,3.47776611328125,6.646137219855189,-3.6938714688271284,0.8954618891019374
1782941990602751200,3.487751220703125,6.419429820418357,-3.7557422340676188,0.9296692060649394
1782941990612736300,3.497736328125,6.017911212998628,-3.6612142308503386,0.8994033932693302
1782941990622722000,3.50772216796875,5.418395752319693,-3.569050618676841,0.8617237970858812
1782941990632707300,3.517707275390625,4.716388469937444,-3.5776226321890947,0.7603201359454542
1782941990642692400,3.5276923828125,3.9583214466810226,-3.5029321328639984,0.7145534602224827
1782941990652677400,3.537677490234375,3.118474550360441,-3.359754665029049,0.746868241437152
1782941990662662100,3.547662109375,2.071553175833821,-3.1705612959504124,0.7756382627170533
1782941990672647200,3.557647216796875,0.44494858382344243,-2.7927757385566827,0.6800033942364155
1782941990682632200,3.567632080078125,-1.5933113942176103,-2.507713473045826,0.5699111805319785
1782941990692617700,3.57761767578125,-4.005797483605146,-2.279389578323066,0.583331583923474
1782941990702602800,3.587602783203125,-6.9441112816482775,-2.082928994720429,0.6376566099595278
1782941990712587500,3.59758740234375,-10.657367834424972,-1.916588239571452,0.5827745345626026
1782941990722572500,3.607572509765625,-15.652755032050608,-1.4099087373696266,0.678334803437069
1782941990732558800,3.617558837890625,-21.13454159878492,-0.3666785455111414,0.9600736966788769
1782941990742543600,3.627543701171875,-27.727539349126815,0.7120411851406097,1.8612033292189238
1782941990752528600,3.637528564453125,-36.55865037229061,2.587410110095143,2.2520576270222663
1782941990762513700,3.647513671875,-44.86397694141864,5.386548661682009,1.3531385101385414
1782941990772498700,3.657498779296875,-50.251608722162246,9.453258002367615,-1.4287133910827339
1782941990782483500,3.6674833984375,-49.423537603831285,14.052967719817161,-4.877149232997
1782941990792468500,3.677468505859375,-44.51359581604004,16.24643988687992,-7.828424511682987
1782941990802453500,3.68745361328125,-36.33261809563636,15.12305311231017,-8.652071383830904
1782941990812438800,3.697438720703125,-27.311282606780527,12.407964132285118,-7.002391036659478
1782941990822423800,3.707423828125,-19.21901660453081,8.984504764586687,-4.926626965132355
1782941990832408600,3.71740869140625,-12.598904052770138,6.216308463752269,-2.990363134232163
1782941990842394600,3.72739453125,-7.187035071870684,3.992537604537606,-1.7599242443062364
1782941990852379600,3.737379638671875,-2.784460037893057,2.115498700544238,-1.0103488628022372
1782941990862364400,3.747364501953125,0.003940846580266952,0.8316226733326911,-0.4822388884283602
1782941990872349700,3.757349609375,2.059313871985674,0.13522694722190498,-0.4750336332246661
1782941990882334700,3.767334716796875,3.9286224739879367,-0.18536336246170101,-0.7830453241031616
1782941990892319700,3.77731982421875,5.801762616977095,0.3090603962138295,-1.3269859778806565
1782941990902304800,3.7873046875,7.657392237716913,1.4921172111093997,-1.7667447379760444
1782941990912289500,3.79728955078125,9.32146818998754,2.2232973964840173,-1.5395689903751015
1782941990922274600,3.807274658203125,9.934725760293006,2.3710274130567908,-1.1208682158775627
1782941990932259600,3.817259521484375,10.79653782018423,2.261131014185399,-0.8092472484607249
1782941990942245600,3.82724560546875,11.996627895206212,2.3834093402460215,-0.20613982770442962
1782941990952230700,3.837230712890625,12.557572509950399,2.5364520762741565,0.2693800546672195
1782941990962215700,3.847215576171875,12.629212681794165,2.505609778764844,0.4473973652150482
1782941990972200700,3.85720068359375,12.808431769347191,2.6059868002712725,0.5612536806933581
1782941990982185700,3.867185791015625,12.898421252351998,2.6603084653064606,0.8503893331229686
1782941990992170500,3.87717041015625,13.051023551136254,2.452387599404156,1.2445359504699707
1782941991002155500,3.887155517578125,13.171525076782702,2.171864000236243,1.5044718119002878
1782941991012140800,3.897140869140625,13.235613225811719,2.3710686218500134,1.7789431252919137
1782941991022125800,3.907125732421875,13.342100254631042,2.7383035591349003,1.900928021363914
1782941991032110600,3.917110595703125,13.259416126203536,2.9653660556197163,1.9858143360108136
1782941991042095600,3.927095703125,13.123594281828403,3.0429578293442723,2.0576096984162926
1782941991052081700,3.93708154296875,13.109926991003752,3.0970334106639026,2.3027403510332105
1782941991062066400,3.94706640625,12.993899395900964,3.1659272064089774,2.490769352507591
1782941991072051500,3.957051513671875,12.863857303971052,3.2228017707973717,2.5502345179110764
1782941991082036700,3.96703662109375,12.75647244952917,3.334868937836587,2.4545649434432386
1782941991092021800,3.977021728515625,12.550347819393872,3.463413484685123,2.3207769429832696
1782941991102006800,3.9870068359375,12.27013620878458,3.2850781942293046,2.1477168164514002
1782941991111991600,3.996991455078125,11.959596095407008,3.045278673507273,1.9528795962668954
1782941991121976600,4.0069765625,11.81675297409296,2.9885940787330267,1.8561958763204514
1782941991131961600,4.016961669921875,11.694234847927094,3.053406450383365,1.868368398542702
1782941991141946600,4.026946533203125,11.578345199990272,3.1629408840745685,2.02921552471146
1782941991151931600,4.036931640625,11.468224783104658,3.203091984938085,2.2255765934623777
1782941991161917700,4.046917724609375,11.212443849396704,3.1197441319048402,2.2190959992714223
1782941991171902700,4.05690283203125,11.014676713240146,3.1638676435306667,2.1986932627119122
1782941991181887700,4.0668876953125,10.836540160226821,3.3012039841219782,2.1531711363345383
1782941991191872500,4.07687255859375,10.597843632310628,3.364205799219012,2.094552358627319
1782941991201857500,4.086857421875,10.3991962061882,3.373004314963519,2.040257727729529
1782941991211842600,4.096842529296875,10.228052873063087,3.4650063068345185,2.0359784429751335
1782941991221827800,4.106827880859375,9.992615639203786,3.58486719648987,2.089560249428451
1782941991231812600,4.1168125,9.823865338695049,3.648075347813964,2.118689897800982
1782941991241797600,4.126797607421875,9.613053427526355,3.6590225660249587,2.067484026698768
1782941991251782700,4.13678271484375,9.471832354456186,3.6895328551009294,2.0676387788690627
1782941991261767700,4.146767578125,9.405677920547127,3.7020223343178627,2.070271903851628
1782941991271753500,4.15675341796875,9.317199426627159,3.684679862111807,2.0577597744114695
1782941991281738500,4.166738525390625,9.250221985897422,3.6575656452149152,2.043986831255257
1782941991291723800,4.176723876953125,9.231527222299576,3.6726162070915103,2.1139967715486883
1782941991301708800,4.186708740234375,8.997878040900826,3.7495246747270223,2.2379373317331073
1782941991311693600,4.196693603515625,8.673427475592494,3.809000653785467,2.380308451621234
1782941991321678600,4.2066787109375,8.214968837332725,3.9163492678701877,2.4980387589886783
1782941991331663600,4.21666357421875,7.544569576135277,3.9423423717826602,2.43407058307752
1782941991341648600,4.226648681640625,6.788687495702504,3.7738293871611353,2.20528988449797
1782941991351633700,4.236633544921875,5.853708492791652,3.660831076751649,2.0535881878152487
1782941991361618400,4.246618408203125,4.818999534106254,3.8075902024656534,2.063950299614668
1782941991371604700,4.256604736328125,4.032109736469388,3.42407662281394,1.9259945119507609
1782941991381589800,4.26658984375,2.589521987682581,2.1861963308408856,1.716392999485135
1782941991391574500,4.276574462890625,-0.7774106061518192,0.8188900330096482,2.0048992679700253
1782941991401559600,4.2865595703125,-5.251303740411997,-0.5429363721057773,3.3507287702694533
1782941991411544600,4.296544677734375,-10.40294649863243,-2.297012036514282,5.063714299398661
1782941991421529600,4.306529541015625,-16.77108686131835,-4.786335281866789,6.349196592763066
1782941991431514600,4.3165146484375,-23.01607781419754,-7.522299292138219,6.735981741431355
1782941991441499600,4.326499755859375,-28.338233790946006,-7.353629071128368,4.601500692519545
1782941991451484700,4.336484619140625,-31.293468913173673,-2.215865785178542,-0.13797317719012497
1782941991461469700,4.3464697265625,-34.319487298154826,5.8239288560777895,-6.26753830025196
1782941991471454700,4.356454833984375,-36.92595691350698,10.349940884631872,-11.132232248562573
1782941991481440500,4.3664404296875,-37.25869249207973,10.971749425661564,-11.939050150984524
1782941991491425500,4.376425537109375,-36.29359541428089,11.484032593089342,-12.167996853780746
1782941991501410800,4.386410888671875,-34.29953405892849,11.518567315375805,-11.614145996689796
1782941991511395600,4.3963955078125,-29.856148291134833,9.99022026849985,-9.099099696537852
1782941991521380600,4.406380615234375,-24.29260114055872,7.746790184569359,-6.9209005019307135
1782941991531368700,4.41636865234375,-18.47391135417819,5.5424318818330764,-5.040540344560146
1782941991541354800,4.426354736328125,-12.77902096594572,3.206567844355106,-3.715798346213996
1782941991551339500,4.436339599609375,-7.596771472537517,0.8408132571347058,-2.48037392296046
1782941991561324500,4.446324462890625,-3.68006739988029,-1.44606974568367,-1.7423393416464328
1782941991571309600,4.4563095703125,-1.4464479313462972,-2.9332541765660047,-1.6492025005266069
1782941991581294600,4.466294677734375,0.8546066585570573,-3.7878257638096806,-1.1901485267221927
1782941991591279900,4.47627978515625,2.9136078113317487,-4.683930261664092,-0.5013360222820192
1782941991601264600,4.4862646484375,4.282951460209489,-5.797535939192771,-0.17237345944195984
1782941991611249700,4.496249755859375,5.306598926654457,-6.56058659608066,0.05227583842128515
1782941991621234700,4.506234619140625,6.348254927998781,-6.8519584831297395,0.4612955787187442
1782941991631219700,4.5162197265625,7.390888834464549,-6.962204572221636,1.0416418266884981
1782941991641205500,4.52620556640625,8.187855204957723,-7.104868245315552,1.534562268128991
1782941991651190500,4.5361904296875,8.791443614163994,-7.23883306364715,1.9302853410124778
1782941991661175800,4.54617578125,9.068886344581841,-7.407341956615448,2.2498452116698027
1782941991671160600,4.55616064453125,9.308930195453762,-7.622288191109895,2.581785255950689
1782941991681145600,4.5661455078125,9.407087202823162,-7.721577417379617,2.8392005128622055
1782941991691130600,4.576130615234375,9.49744961079359,-7.686896564620733,3.049049716478586
1782941991701115600,4.58611572265625,9.543941312855482,-7.540196183356643,3.1025074581608174
1782941991711100700,4.5961005859375,9.599499533948302,-7.360000944247841,3.098452045290172
1782941991721085400,4.60608544921875,9.615134909975529,-7.185346972653269,3.0798660027638074
1782941991731070500,4.616070556640625,9.575876081776618,-6.896835735732316,3.0318811395347116
1782941991741055500,4.626055419921875,9.637892685228586,-6.525640370383858,2.9375518737599253
1782941991751041500,4.63604150390625,9.553891044461727,-6.16875059376359,2.87448722255975
1782941991761026600,4.646026611328125,9.384008525052666,-5.907751048624515,2.788743706561625
1782941991771011600,4.656011474609375,9.242142139816284,-5.666508343356847,2.65998317887485
1782941991780996600,4.66599658203125,9.015092795073986,-5.40631602294743,2.5406623874455687
1782941991790981600,4.675981689453125,8.624920926576852,-5.20579052799344,2.2988393980719146
1782941991800966400,4.68596630859375,8.130688379624486,-5.062095173764228,2.094651727348566
1782941991810951400,4.695951416015625,7.563325130009651,-4.944393507969379,2.0275261103197932
1782941991820936400,4.7059365234375,6.913876886904239,-4.792790741616487,1.923452718513459
1782941991830921700,4.715921630859375,6.301428294894099,-4.510872327089309,1.9507908072941005
1782941991840906500,4.725906494140625,5.758649451437592,-4.363972623860835,2.0060418621338902
1782941991850891500,4.7358916015625,5.241845007193088,-4.353061353746057,2.091848652626574
1782941991860877600,4.745877685546875,4.4671962669700385,-4.08219975528419,2.2555707497097552
1782941991870862600,4.755862548828125,3.2878035275399684,-3.773150757247209,2.349913313357532
1782941991880847400,4.765847412109375,1.6700415826767683,-3.5417169138103723,2.4749974906191228
1782941991890832600,4.77583251953125,-0.4841594812273979,-3.4596450720623135,2.757586059492826
1782941991900817700,4.785817626953125,-3.009039777651429,-3.9392484974205493,3.4198099052801725
1782941991910802700,4.795802734375,-5.9829784313052885,-4.513510274377465,4.323725953668355
1782941991920787500,4.805787353515625,-9.415521853691338,-4.491998992054164,5.110178528931737
1782941991930772500,4.8157724609375,-12.806969295579194,-3.3794846168935297,5.104484701204299
1782941991940757500,4.825757568359375,-16.926520584136245,-0.7664129729278385,3.5359272244930264
1782941991950742500,4.835742431640625,-22.56836444183588,3.1578248562350866,1.60348528996855
1782941991960728600,4.845728515625,-28.68146036839485,6.573714373201131,0.5016143277667463
1782941991970713600,4.855713623046875,-34.69109358239174,8.949123654603957,0.2479716481965035
1782941991980698600,4.86569873046875,-39.52667483346462,11.539715317344665,0.1895196784235537
1782941991990683600,4.87568359375,-42.58129738163948,13.949844029951095,-0.7125677662979811
1782941992000668400,4.88566845703125,-41.95971212797165,15.874057357573509,-2.1545041385039685
1782941992010653400,4.8956533203125,-38.02857796342373,17.30665504274368,-3.763602007657289
1782941992020638500,4.905638427734375,-32.04401372423172,16.806283262383936,-5.04096178484261
1782941992030623500,4.91562353515625,-24.744960292899606,14.691376682513951,-5.108386384817957
1782941992040608800,4.92560888671875,-18.034511052131652,11.803251687484979,-4.193291939811409
1782941992050593500,4.935593505859375,-11.879051317095756,8.884121313339472,-2.844603540949523
1782941992060579600,4.94557958984375,-6.246118495604396,6.202918820825219,-1.205985562801361
1782941992070564600,4.955564697265625,-1.9145166939944027,3.6257591788485644,-0.2769997724233195
1782941992080549400,4.96554931640625,1.148242983406782,1.4350862871155141,0.45208216203041374
1782941992090534400,4.975534423828125,2.877337059032917,-0.013788871377706527,0.9263944952432066
1782941992100519700,4.985519775390625,3.649945817860961,-0.9772935654185712,1.0351977651156485
1782941992110504700,4.995504638671875,4.914146253743767,-1.229195027344674,1.1559293731909244
1782941992120489500,5.005489501953125,6.202533036378026,-0.628700930891931,1.1514250475089995
1782941992130474500,5.015474609375,6.906792481601238,0.40780601712614295,1.015618035376817
1782941992140459500,5.02545947265625,7.6604942953854795,0.8694961846530437,1.0445188434295356
1782941992150444500,5.035444580078125,8.604033036848902,0.8300456332743167,1.1913264844603837
1782941992160430300,5.045430419921875,9.518587091368437,0.7910353730089962,1.2427742014944552
1782941992170415600,5.05541552734375,10.1856189219594,0.8664971489675343,1.1577287507630885
1782941992180400600,5.065400634765625,10.687968724393844,0.9299668738372623,1.1945554564442484
1782941992190385700,5.0753857421875,11.05204285956025,0.9120740742720663,1.243806174890697
1782941992200370400,5.085370361328125,11.36232461426258,0.9001301001086831,1.2299448227986693
1782941992210355500,5.09535546875,11.566969234973191,0.7937995770253241,1.2478151182711124
1782941992220340500,5.105340576171875,11.760870343351364,0.6059120298482478,1.2950611458316446
1782941992230325500,5.115325439453125,11.880303362983465,0.4115966415807605,1.319143886078149
1782941992240310500,5.125310546875,11.921498127681016,0.24330416784211992,1.2845527574293314
1782941992250295600,5.135295654296875,11.98174947502613,0.20765973074808716,1.3118662962906062
1782941992260280600,5.145280517578125,11.986404607355594,0.33197511559426784,1.3594070690140128
1782941992270266600,5.1552666015625,12.011284197068214,0.4511044761046767,1.4480701257206499
1782941992280251400,5.16525146484375,12.015347793245315,0.5209209396526218,1.5961184144623577
1782941992290236400,5.175236328125,11.918073998451232,0.6516859390296041,1.7708282078973947
1782941992300221400,5.185221435546875,11.79330897014141,0.825353822196275,1.9762370909787714
1782941992310206700,5.195206787109375,11.680582754671573,1.0495575682491063,2.1863754868000744
1782941992320191700,5.205191650390625,11.534942111593484,1.2739824097067116,2.3409978932350874
1782941992330176500,5.215176513671875,11.361818418306111,1.4848969044670461,2.400295885378122
1782941992340161500,5.22516162109375,11.190561687934398,1.7186913395553827,2.3965340486265716
1782941992350146600,5.235146484375,10.956755270147323,1.9743167904406784,2.3989932783469556
1782941992360131600,5.245131591796875,10.772630874896048,2.1901763403877617,2.5038959605842828
1782941992370117600,5.25511767578125,10.66895188923478,2.389358019517362,2.620218154719472
1782941992380102700,5.2651025390625,10.542979238700866,2.527100018300116,2.7448706625655293
1782941992390087700,5.275087646484375,10.382443808829784,2.635870774142444,2.976636806696653
1782941992400072400,5.285072509765625,10.193248101663588,2.741207756143808,3.16752587377727
1782941992410057500,5.295057373046875,9.993750780713558,2.7289292893290518,3.1988474792361257
1782941992420042500,5.30504248046875,9.747813780149817,2.776640011791885,3.2128666522383686
1782941992430027500,5.315027587890625,9.578730302163958,2.8966566765308377,3.2363714464664457
1782941992440012500,5.325012451171875,9.498674768674373,2.8875217684388157,3.1421745748996734
1782941992449997600,5.33499755859375,9.208477186101675,2.665302328070998,3.075909958614409
1782941992459982600,5.344982666015625,8.865071744954585,2.409483400440216,2.960516862022877
1782941992469967600,5.354967529296875,8.54073808402419,2.2556123968943953,2.807753235197067
1782941992479953400,5.364953369140625,8.058506940510869,2.1060870213374496,2.6170301723331213
1782941992489938400,5.3749384765625,7.122489826723933,1.794463788898289,2.3463493372656403
1782941992499923500,5.38492333984375,5.770177392145991,1.1059341199874877,2.1047928898736834
1782941992509908500,5.394908447265625,4.218165976566076,0.20428630879223345,1.9721815319776534
1782941992519893800,5.404893798828125,2.656903917559981,-0.7785726356685161,2.1199730694793164
1782941992529878500,5.41487841796875,1.6391338187158107,-1.9068688095897435,2.259339308463037
1782941992539863600,5.424863525390625,0.4139239154845476,-3.4142584086328744,2.388930003363639
1782941992549848600,5.4348486328125,-3.0722476367145775,-5.428227410504221,2.8362688433244823
1782941992559833600,5.44483349609375,-7.324053432554006,-6.9189674880415195,3.1240333535313605
1782941992569818600,5.454818603515625,-10.20087260519266,-7.286818803659081,3.4934561562493442
1782941992579804700,5.4648046875,-13.39525433719158,-7.485500716572999,3.1583307599306103
1782941992589789700,5.474789794921875,-16.175113018769025,-8.011964385044575,1.7187556369632482
1782941992599774700,5.484774658203125,-18.249965820670127,-7.269630937492847,0.5073698225535452
1782941992609759500,5.494759521484375,-19.932540137183665,-5.184277784365415,-0.9846306303083896
1782941992619744500,5.50474462890625,-20.90787102422714,-2.864974128805101,-2.9142519544541834
1782941992629729500,5.5147294921875,-20.937910773181915,-0.8006465203106403,-4.735540914174914
1782941992639714600,5.524714599609375,-19.88755299446583,0.8986506752058863,-5.272192214661836
1782941992649699300,5.53469921875,-17.616130157238246,2.216444315718859,-4.403963857987523
1782941992659684600,5.5446845703125,-15.752341195440291,2.7405238655328747,-3.7681472498714923
1782941992669669600,5.554669677734375,-14.102626361477375,2.6496593532592057,-3.774830088636279
1782941992679655400,5.564655517578125,-12.36959611544609,2.434408582860231,-3.686429043866694
1782941992689640000,5.574639892578125,-10.46454809154272,1.9794220046252011,-3.3210862039387226
1782941992699625000,5.584625,-8.295008004209398,1.3966945971399545,-3.0215640359207985
1782941992709610200,5.5946103515625,-6.253320974329114,0.6814617032859474,-2.8278762780323623
1782941992719595300,5.60459521484375,-4.4268905600667,-0.021349223629385232,-2.78788533616662
1782941992729580300,5.614580322265625,-2.6660680517464876,-0.4990855399414897,-2.8326018452495334
1782941992739565000,5.62456494140625,-1.0712421613126992,-0.7564927596770227,-2.9117072384074327
1782941992749550000,5.634550048828125,0.26196049912571906,-1.0997636146590113,-2.822272174414992
1782941992759535000,5.64453515625,1.768887156832218,-1.3682489855088293,-2.575067930394411
1782941992769520000,5.65452001953125,3.450971644002199,-1.2416495813786983,-2.2913979960247874
1782941992779506200,5.664506103515625,4.811655601084232,-0.8668468391880393,-1.9813421590328215
1782941992789491200,5.6744912109375,5.710992797249555,-0.6250804023072123,-1.7347627689123153
1782941992799476200,5.684476318359375,6.362030939894915,-0.49872225958704947,-1.5334901088528334
1782941992809461000,5.6944609375,6.940094447222352,-0.3469429676234722,-1.2937028630904852
1782941992819446000,5.704446044921875,7.431329565924406,-0.28754955228194595,-1.001845969003439
1782941992829431000,5.71443115234375,7.892540133240819,-0.2928706011742353,-0.7355780550073832
1782941992839416000,5.724416015625,8.085925108790397,-0.28363661662191153,-0.6439111403096467
1782941992849401300,5.7344013671875,8.063101282563805,-0.3287535231992602,-0.5709592282801866
1782941992859386000,5.74438623046875,8.09154996293485,-0.3350863794825971,-0.4617265174819156
1782941992869371100,5.75437109375,8.20024706901908,-0.26268252978995443,-0.31921803494971246
1782941992879357200,5.764357177734375,8.341706627020239,-0.09541559970676898,-0.1623500415449962
1782941992889342000,5.774342041015625,8.43379980430603,0.10372443223819136,0.002325593403354287
1782941992899327000,5.784326904296875,8.474097912424803,0.36595731856450436,0.1337873976717703
1782941992909312300,5.794312255859375,8.47555571001768,0.6524922869764268,0.2822531811731867
1782941992919297300,5.80429736328125,8.565988845136761,0.9031339580997824,0.4499574614940211
1782941992929282300,5.8142822265625,8.468979254236817,1.1718692120574414,0.5227323364561424
1782941992939267000,5.82426708984375,8.280859067347645,1.4860960511237382,0.6207375507973134
1782941992949252000,5.834252197265625,7.9655013245552775,1.7575833802685141,0.6427016183894128
1782941992959237000,5.844237060546875,7.544194313082098,1.908611853864789,0.5200789358705282
1782941992969222100,5.85422216796875,7.073059148600697,1.9571023285284637,0.3686426486583426
1782941992979207000,5.86420703125,6.663240914869308,2.0383952948585153,0.39120866419896483
1782941992989193200,5.874193115234375,6.27408494541645,1.9827346363045275,0.5457297656839714
1782941992999178200,5.88417822265625,5.249816132202744,1.7471911655917762,0.701365842673555
1782941993009163300,5.894163330078125,3.9150884541541338,1.4620894448533652,0.8004941792931407
1782941993019148000,5.90414794921875,2.3829314936012027,1.1111429406769573,0.8558442375279962
1782941993029133000,5.914133056640625,0.06820142956674098,0.7237893444709479,0.7902853583592921
1782941993039118000,5.9241181640625,-3.6042689393132923,0.08802768141254783,0.3737845781240612
1782941993049103000,5.93410302734375,-8.818367276924848,-0.5590514214087278,-0.18106073336433617
1782941993059088100,5.944088134765625,-14.722362187886237,-0.13821619216576217,-0.4448040607862174
1782941993069073200,5.9540732421875,-19.92721864989996,0.7732584549084305,-0.9630009823024273
1782941993079059200,5.96405908203125,-25.46796009442806,1.6214911945194006,-1.65377068522498
1782941993089044000,5.9740439453125,-30.6078481174469,3.138733786796033,-2.2228414694100618
1782941993099029000,5.984029052734375,-34.87394605801105,5.091283858847618,-3.58275093498826
1782941993109014000,5.994013916015625,-38.85828106687069,6.664180826067924,-5.361508912971615
1782941993118999300,6.003999267578125,-40.596579024171824,8.12510268844664,-6.216204418855905
1782941993128984300,6.013984375,-39.03995280827284,9.130758571127057,-5.9118438708961
1782941993138969000,6.023968994140625,-34.875956813311575,8.636663971340656,-5.353288781636953
1782941993148954000,6.0339541015625,-28.186225366401672,6.609545565038919,-4.8007870010674
1782941993158939100,6.043939208984375,-20.656477511823176,3.8392540454909203,-3.628137890678644
1782941993168924200,6.053924072265625,-14.205642499315738,1.0955804106902332,-2.4090029234468937
1782941993178910000,6.063909912109375,-9.166115131190418,-1.188809825464338,-1.1204866692140698
1782941993188895200,6.073895263671875,-4.957803024640679,-3.2066783189922567,0.44460576173514127
1782941993198880300,6.08388037109375,-1.0911328566968441,-5.155619845157862,1.6439689837872982
1782941993208865300,6.093865234375,1.968312581589818,-6.278141527330875,1.8910405413389204
1782941993218850000,6.10385009765625,3.9883699634641405,-5.9742667170614,1.7550626296192406
1782941993228835000,6.1138349609375,5.581442288228869,-5.072595524990558,1.810568243741989
1782941993238820000,6.123820068359375,7.582794385111331,-4.716465626826882,2.0340420680850744
1782941993248805000,6.13380517578125,9.388861225780843,-4.521629867947102,2.4746605137497184
1782941993258790100,6.1437900390625,10.842033496946096,-3.325277810409665,2.8179911360949275
1782941993268775200,6.153775146484375,11.811688676440715,-2.0550772573292253,2.7880481255128977
1782941993278760200,6.16376025390625,12.158038938868046,-1.3414615163482724,2.648611013250053
1782941993288746200,6.173746337890625,12.19965689741373,-1.2751608058363197,2.4612106650680303
1782941993298731000,6.18373095703125,12.21606910303235,-1.550952261915803,2.2795509063646198
1782941993308716000,6.193716064453125,12.195661105775832,-2.006436560539901,2.0468726158246398
1782941993318701000,6.203701171875,12.293421222782134,-2.3862238131448623,1.799197247160971
1782941993328686300,6.213686279296875,12.395061396092176,-2.5599106932729483,1.5883832901656627
1782941993338671000,6.223671142578125,12.388927423381805,-2.510398474346101,1.4437097385540605
1782941993348656000,6.23365625,12.402869439494609,-2.474652038182318,1.4626722131773828
1782941993358641200,6.24364111328125,12.442394809675216,-2.459047641815245,1.5840068286471067
1782941993368626200,6.253626220703125,12.398947297614813,-2.2870430156856774,1.553277782253921
1782941993378611200,6.263611083984375,12.395074255573748,-1.8555597703739999,1.376322255718708
1782941993388597200,6.27359716796875,12.480054385983943,-1.37295219476372,1.2316219622306526
1782941993398582300,6.283582275390625,12.549548193448782,-0.9612511429604143,1.2018095192257314
1782941993408567300,6.2935673828125,12.499336594080924,-0.504055145047605,1.1937675940021872
1782941993418552000,6.303552001953125,12.420223894399404,-0.013433628199249505,1.2205021639317273
1782941993428537000,6.313537109375,12.335099971604347,0.3904221899963915,1.206019245875254
1782941993438522000,6.323522216796875,12.035137366342544,0.5857878179691731,1.2084367553457618
1782941993448507100,6.333507080078125,11.789769105577468,0.6683736005887388,1.2477271477267144
1782941993458492200,6.3434921875,11.827499993556737,0.8123188379257917,1.349464059409499
1782941993468477200,6.353477294921875,11.836640746867657,1.1239975999444722,1.42920073620826
1782941993478462200,6.363462158203125,11.71199729911089,1.5369745899677276,1.378536132375896
1782941993488448300,6.3734482421875,11.430534811657667,2.027498637790978,1.2881781083196402
1782941993498433000,6.38343310546875,11.135426076167821,2.4620643592879174,1.1951817716490476
1782941993508418000,6.39341796875,10.90379524885416,2.696552037337422,1.0812215574048458
1782941993518403000,6.403403076171875,10.58851349390745,2.6619951032191516,1.0073493887253104
1782941993528388000,6.41338818359375,10.250641136968135,2.5213658585622905,1.0298943249452859
1782941993538373000,6.423373046875,9.992450804030895,2.5757442222207785,1.111421100031212
1782941993548358100,6.433358154296875,9.779924490159749,2.684210149897635,1.1067228592123837
1782941993558343200,6.44334326171875,9.84538743467331,2.7220085501551625,1.1996598669111729
1782941993568328200,6.453328125,10.039461561530828,2.7368267645806075,1.3085437277391552
1782941993578313200,6.463313232421875,9.992109443247317,2.763774977260828,1.4065018515355885
1782941993588299000,6.473299072265625,9.888300693726539,2.790380952374637,1.4182517644315957
1782941993598284300,6.4832841796875,9.753635618171096,2.8729642507761715,1.3302633921161293
1782941993608269300,6.493269287109375,9.626870355954766,2.957655042850971,1.2688814333058893
1782941993618254000,6.503254150390625,8.906286967918277,3.2324501813694835,1.1277060990735888
1782941993628239000,6.513239013671875,7.43266344487667,3.2566797827407714,1.15210513872765
1782941993638224100,6.52322412109375,5.944027646142244,1.21773737539351,1.667779775224626
1782941993648209200,6.533209228515625,4.994552500367164,-3.4379715849146244,3.6946079664081335
1782941993658194200,6.543194091796875,1.752551523581147,-10.340641141366959,7.959259799817204
1782941993668179000,6.553178955078125,-2.791953608518839,-14.607698866873978,8.197027522450686
1782941993678165200,6.563165283203125,-1.952332922169566,-12.778347596728802,6.764149266773462
1782941993688150800,6.57315087890625,-5.241745053949952,-7.010362746191024,6.33544454626441
1782941993698135800,6.5831357421875,-11.606859346812962,-3.0645790017828345,5.442749272331595
1782941993708120800,6.593120849609375,-17.92119797668457,-0.8969565846391022,4.1757653432101005
1782941993718105900,6.60310595703125,-22.907209443199633,-0.9356276760779321,1.1544279556520283
1782941993728091000,6.6130908203125,-26.218827561569213,-1.3834920012176035,-0.3889174845218658
1782941993738076000,6.623075927734375,-23.09233220183849,1.0135765926770866,-2.411514614006877
1782941993748061000,6.63306103515625,-12.397711618340015,5.332206246119737,-5.76721328164339
1782941993758046000,6.6430458984375,-13.385088332486152,12.392695251482724,-11.685324396240711
1782941993768031000,6.653031005859375,-35.85728021876812,20.395755030059814,-17.214606873643397
1782941993778016800,6.663016845703125,-29.032199221169947,15.71813965063095,-18.13559592964649
1782941993788001800,6.673001708984375,-14.215462467062473,4.913422031122446,-16.081822156131267
1782941993797987000,6.682987060546875,-14.684187063270807,3.9398596150562164,-10.671925936609506
1782941993807971800,6.692971923828125,-10.77803887141943,5.142273456850647,-5.063395150446891
1782941993817956900,6.702956787109375,-7.655748562163114,3.9169028100997205,-1.5814982068270445
1782941993827942000,6.71294189453125,-5.710426395538449,2.2872351772569117,-0.40599458379000425
1782941993837927000,6.722927001953125,-5.052088159012794,-0.45305129932351407,-0.9773205995559692
1782941993847912000,6.732911865234375,-3.476004378449917,-2.6215461884528395,-1.8989140511929987
1782941993857896700,6.742896728515625,-1.437298410207033,-2.842312215141952,-2.2086073384828864
1782941993867881700,6.7528818359375,0.2815782227873802,-2.086014831906557,-1.802611293388158
1782941993877868000,6.762867919921875,1.6737462824136018,-1.3582967696845532,-1.3833796268843113
1782941993887852800,6.772852783203125,2.298890105345845,-1.3391551391020415,-1.3785608284257351
1782941993897837800,6.782837890625,2.07032509534359,-1.8538894990742205,-1.328906424549222
1782941993907822800,6.79282275390625,1.309771515968442,-2.21131937392056,-0.9051688979934901
1782941993917807900,6.802807861328125,0.591926612985134,-2.088425254049152,-0.3090474636670202
1782941993927793000,6.81279296875,0.6590992840260267,-1.5085555740825831,0.12454015177907421
1782941993937778000,6.82277783203125,1.3240186525076627,-0.8271000813417136,0.24159239548817277
1782941993947763000,6.832762939453125,2.072937323668599,-0.5633542331691831,0.041922439651284366
1782941993957748000,6.842748046875,2.8263579824239016,-0.7387523011293262,-0.24056710756104438
1782941993967733000,6.85273291015625,3.0750340525627133,-0.7835469900149852,-0.4011526601841673
1782941993977718800,6.86271875,2.5446920813530682,-0.3657299760820344,-0.5022475111037492
1782941993987703800,6.872703857421875,1.7883108192265034,0.21032535149445755,-0.3972059683850035
1782941993997688800,6.882688720703125,1.2998182772308586,0.5867791305614635,-0.029467899316991678
1782941994007673900,6.892673828125,1.28620125528872,0.6121596555335447,0.38385497696790843
1782941994017659000,6.902658935546875,1.3251578856706618,0.4802499065682292,0.6599267478261143
1782941994027644000,6.912643798828125,1.097930846273899,0.4505907544288784,0.7992872877214103
1782941994037629000,6.92262890625,0.9286001155287027,0.6475302806548774,0.6223211667269468
1782941994047614000,6.932614013671875,0.970856956499815,0.9621831631135195,0.19393128432072698
1782941994057598700,6.9425986328125,1.0627899747878313,1.2332917951390145,-0.12811485019437968
1782941994067585000,6.9525849609375,1.0806506256490944,1.4619883225664496,-0.09522895456086844
1782941994077570000,6.962570068359375,0.939058381178975,1.6037417489476502,0.30466497426647693
1782941994087554800,6.972554931640625,0.5661234786868095,1.6071601790890098,0.8659225639499724
1782941994097539800,6.982539794921875,0.16645955922305583,1.4463433019280434,1.2853076674498616
1782941994107524900,6.99252490234375,-0.12412322327494621,1.1385067484207452,1.4396268531545995
1782941994117510000,7.002510009765625,-0.2102531082421541,0.8105471520781516,1.374549254696816
1782941994127495000,7.012494873046875,-0.07816869682967663,0.5866024953529239,1.1527157449066638
1782941994137479700,7.022479736328125,0.15501403610110281,0.5331866931162774,0.9372206443578004
1782941994147465000,7.03246484375,0.48724166515171524,0.6142701083488762,0.8343008795659989
1782941994157450000,7.042449951171875,0.7773135755181312,0.7238748307973146,0.7977035987265407
1782941994167435800,7.052435791015625,0.7751052518188953,0.7116160915963351,0.8376752513699233
1782941994177420800,7.0624208984375,0.6287953311771154,0.5327534162655473,0.8053620775904506
1782941994187405800,7.07240576171875,0.634993601295352,0.30593028149455787,0.5120675884483382
1782941994197390800,7.082390869140625,0.7675719337046146,0.10137962267771362,0.14099796837139875
1782941994207376000,7.0923759765625,0.6992863329857587,-0.12011954059153794,-0.04444287977330386
1782941994217361000,7.10236083984375,0.4637999992877245,-0.2478244217455387,-0.1341334163641557
1782941994227346000,7.112345947265625,0.38956864190697665,-0.19098770514950156,-0.24528865619022397
1782941994237331000,7.1223310546875,0.5275871195435524,-0.02965644872561097,-0.37323834241814907
1782941994247316000,7.13231591796875,0.7773632598787545,0.17447963794097304,-0.4143614666515961
1782941994257300700,7.14230078125,1.0286305155545472,0.35442747815996406,-0.3939124067323282
1782941994267286800,7.152286865234375,1.072335801768303,0.4975405024565756,-0.4076975883156061
1782941994277272000,7.16227197265625,0.7999842570096254,0.5056732477687299,-0.39756643572784955
1782941994287256800,7.1722568359375,0.3780529761582613,0.4218733401190489,-0.35358079820275307
1782941994297241900,7.182241943359375,0.15629238547384738,0.350983913577348,-0.4128129951005801
1782941994307227000,7.192226806640625,0.13903671476840973,0.38544301334433256,-0.6323033392980695
1782941994317212000,7.2022119140625,0.17404665335118769,0.4879547087918967,-0.9772437349274754
1782941994327197000,7.212197021484375,0.2116910320907831,0.5497824386082589,-1.2759259449899196
1782941994337181700,7.222181640625,0.2776958283960819,0.5014600870531052,-1.3721617750383912
1782941994347166700,7.232166748046875,0.4870516955375671,0.4049778079628944,-1.2577632424421608
1782941994357153000,7.242153076171875,0.6782552353948355,0.3140857500951737,-1.0109794157907366
1782941994367137800,7.2521376953125,0.5949935993403196,0.2465275868680328,-0.7510404856204986
1782941994377122800,7.262122802734375,0.1784510257899761,0.21617855276837944,-0.5622745116410777
1782941994387107800,7.27210791015625,-0.3161287271648645,0.22523886125423012,-0.3830931988151744
1782941994397092900,7.2820927734375,-0.5238076010048389,0.22409992035217582,-0.2946266693276353
1782941994407078000,7.292077880859375,-0.27849136268794533,0.2020805423762649,-0.2750836000710726
1782941994417063000,7.30206298828125,0.3177057672232389,0.19904000563658772,-0.2176210797268897
1782941994427048000,7.3120478515625,0.7103700370579957,0.248697185992077,-0.1412330009699799
1782941994437033000,7.322032958984375,0.7024772379815578,0.26551811854206026,-0.1355674677552655
1782941994447018000,7.33201806640625,0.549936313995719,0.20517529352121053,-0.28459691302143036
1782941994457003800,7.342003662109375,0.3786562027484178,0.13732421176210044,-0.4224429567005485
1782941994466988800,7.35198876953125,0.17002280466258524,0.04558985785134136,-0.28803032153621316
1782941994476973800,7.361973876953125,0.06326338864266871,-0.022114143587276338,0.11545001441054045
1782941994486959000,7.371958984375,0.25430150880515573,-0.021739245860278606,0.5243114954063669
1782941994496943900,7.38194384765625,0.5715262145131826,0.047881110593676564,0.6636170537114143
1782941994506929000,7.391928955078125,0.6079249771058559,0.21241306275501845,0.4826834903907031
1782941994516914000,7.401913818359375,0.16281097358763216,0.3388569109972566,0.013171885690256022
1782941994526899000,7.41189892578125,-0.3119645932227373,0.3010635522410273,-0.42084491038676347
1782941994536883700,7.4218837890625,-0.554695491221547,0.057181876771897074,-0.46054037643726914
1782941994546868700,7.43186865234375,-0.7384983994334936,-0.18146292095705865,-0.040333170298999174
1782941994556855000,7.44185498046875,-0.5124059170246124,-0.28058826190195973,0.3755797909777611
1782941994566839800,7.45183984375,-0.199822315120697,-0.2561841076813638,0.5369315056677907
1782941994576824800,7.461824951171875,-0.09299334099590778,-0.17276633121706544,0.4157791879624128
1782941994586809900,7.471809814453125,0.03341886999905109,-0.08448043725974858,0.09834014538396149
1782941994596795000,7.481794921875,0.26898236058652397,-0.050173167053610086,-0.19810993997855111
1782941994606780000,7.49177978515625,0.42240065192878246,-0.08450009180828928,-0.21329289606316013
1782941994616764700,7.5017646484375,0.5030810393184423,-0.08831877331361174,0.05450721420254558
1782941994626750000,7.51175,0.5723316856771707,-0.00888166398331523,0.4652598427072167
1782941994636735000,7.52173486328125,0.43589375523030754,0.09763566864272578,0.742578727549687
1782941994646720800,7.531720703125,0.2390145078241825,0.1686308205812238,0.7355339236047118
1782941994656705800,7.541705810546875,0.19025369178652762,0.20537739196456967,0.5470055943060665
1782941994666690800,7.55169091796875,0.09252455444037913,0.23444772963160648,0.41286520021185275
1782941994676675800,7.56167578125,0.2595914319068193,0.25193065148796884,0.3323264132499695
1782941994686660000,7.57166015625,0.5436965428233146,0.3050896294193342,0.2712044570827857
1782941994696645000,7.58164501953125,0.600744710212946,0.39016912855077535,0.2609164334328845
1782941994706630100,7.591630126953125,0.5973194119393825,0.44818778494037687,0.24066256729215382
1782941994716615200,7.601615234375,0.5043851076543331,0.4765133503884077,0.2252757226658985
1782941994726600200,7.61160009765625,0.20838263819515704,0.5056031051419675,0.2305953467860818
1782941994736585200,7.621585205078125,-0.2249631861180067,0.5404647212952375,0.24608349636234342
1782941994746571000,7.631571044921875,-0.1913870797306299,0.56407816352956,0.1867890113506466
1782941994756556000,7.64155615234375,0.11629355256259441,0.6057934084372595,0.05422565731480717
1782941994766541300,7.651541259765625,0.330454774159193,0.6967668975107372,-0.047159116462059315
1782941994776526300,7.6615263671875,0.35880525485277176,0.7750336478874087,-0.15302012233752757
1782941994786511000,7.671510986328125,0.2798690807819366,0.7701843081600963,-0.3387495051000267
1782941994796496100,7.68149609375,0.2634311562001705,0.6941390332251787,-0.5588455235730856
1782941994806481200,7.691481201171875,0.13409516671299934,0.5765764105748384,-0.6726247552271932
1782941994816466200,7.701466064453125,-0.02414192308783531,0.46885088946912434,-0.7368940329767764
1782941994826451000,7.711450927734375,-0.24334347693920133,0.39900483450051394,-0.9029630585122853
1782941994836437200,7.721437255859375,-0.5088245514065027,0.36472744797598566,-1.145725447627902
1782941994846422300,7.73142236328125,-0.7089630928695202,0.39196945597101,-1.3261372520968318
1782941994856407000,7.741406982421875,-0.8210282140821218,0.42549759503081436,-1.394556416067481
1782941994866392000,7.75139208984375,0.4788526069909334,0.6050836162000894,-1.0007389576096086
1782941994876377000,7.761377197265625,2.742325361996889,1.1861653023049235,0.7641871866371482
1782941994886362000,7.771362060546875,0.6156435886591672,1.1776873968169093,1.851305327799916
1782941994896347100,7.78134716796875,1.3330290574371815,0.5185812081260607,1.6655498242154716
1782941994906332000,7.791331787109375,0.7855892364323138,0.03340221112519502,0.8555204124011099
1782941994916317200,7.801317138671875,0.31579671873152254,-0.046184024352207774,0.729781205296889
