time,seconds_elapsed,z,y,x
1782941996384275200,0.075275146484375,-0.7925327719599008,0.7589307274136692,-0.4644842552248388
1782941996394260200,0.08526025390625,-0.8358692248612641,0.7237968701902776,-0.561369050701335
1782941996404245200,0.095245361328125,-0.8223656001657247,0.61260787422508,-0.6171328043036163
1782941996414230000,0.10522998046875,-0.7641185783803462,0.47693289097473024,-0.6808955207705497
1782941996424215000,0.115215087890625,-0.6275105520635843,0.36393005052059885,-0.7480141235366463
1782941996434200000,0.125199951171875,-0.3397673769056797,0.2800898839257657,-0.8223319901570677
1782941996444185000,0.13518505859375,0.04620587085783481,0.20996939592994748,-0.8813599331870674
1782941996454170000,0.145170166015625,0.3800795135498047,0.10540851286761461,-0.8538130970265716
1782941996464155100,0.155155029296875,0.6251818168550729,0.007621800115332007,-0.7391338477928191
1782941996474141200,0.16514111328125,0.9039876523196697,-0.0916742942865938,-0.6650069006346165
1782941996484126200,0.175126220703125,1.2012141106158494,-0.1511146175097674,-0.6666351594235748
1782941996494111000,0.185111083984375,1.4282242923915385,-0.15861849033385514,-0.6594031623434276
1782941996504096000,0.195095947265625,1.5324901380300522,-0.13232187343016266,-0.5811796300539747
1782941996514081300,0.205081298828125,1.6261451578050852,-0.10532916402108966,-0.5205092901118099
1782941996524066300,0.21506640625,1.7832213871330023,-0.07994162478633224,-0.5338936723418534
1782941996534051000,0.225051025390625,1.9707558830887077,-0.04770217383019626,-0.5351315801063552
1782941996544036000,0.2350361328125,2.1242297040104865,0.026237434062361717,-0.5321927136428654
1782941996554021000,0.245021240234375,2.1796692671597,0.17380670711547136,-0.5543435725113377
1782941996564006100,0.255006103515625,2.1494740353822706,0.37935039555765687,-0.6637144496712833
1782941996573992200,0.2649921875,2.1268068610221147,0.6067883742913603,-0.8601772982962429
1782941996583977200,0.274977294921875,2.0653683497190474,0.920335195204243,-1.1094364290200174
1782941996593962200,0.284962158203125,2.066087896165252,1.2839128520905971,-1.339746236862987
1782941996603947300,0.294947265625,2.132014951059222,1.6146468815825878,-1.5832444659724831
1782941996613932000,0.30493212890625,2.211063353332877,1.895911069984734,-1.8156161747813224
1782941996623917000,0.3149169921875,2.270974508938193,2.1340134314000605,-2.0125474446356297
1782941996633902000,0.324902099609375,2.2672604568511248,2.395780453780293,-2.276409685729444
1782941996643887000,0.33488720703125,2.0903128213614224,2.7453742281734943,-2.528427467511594
1782941996653872000,0.3448720703125,1.830302287259698,3.066556731596589,-2.6315759995579717
1782941996663857200,0.354857177734375,1.6678589779406785,3.3753274972140788,-2.7146345142558217
1782941996673843200,0.36484326171875,1.5448264725118874,3.8076606373533606,-2.8879566527247427
1782941996683828200,0.374828125,1.0957868199825287,4.346556209635734,-3.1965798265650864
1782941996693812500,0.3848125,0.3445890979737043,4.648399221816659,-3.380777871574461
1782941996703797200,0.39479736328125,-0.4173270019263029,4.552112392233312,-3.2580949102357026
1782941996713782300,0.4047822265625,-0.9066326138705014,4.257478288517892,-2.832567066197097
1782941996723767300,0.414767333984375,-1.2021084291070698,4.0521304879739874,-2.3318968874126673
1782941996733752600,0.424752685546875,-1.5423264723896979,3.9253821768924593,-1.8432998621292411
1782941996743737300,0.4347373046875,-2.0400807637274263,3.697563016821444,-1.2413029598981142
1782941996753722400,0.444722412109375,-2.6540502816945315,3.2474507666245103,-0.8933470158398151
1782941996763707400,0.454707275390625,-3.155867584687471,2.5397517023414373,-1.0040276969566941
1782941996773693400,0.464693359375,-3.310667101255059,1.7324965775460004,-1.283378745213896
1782941996783678200,0.47467822265625,-3.308392142060399,1.2305826823107897,-1.5442412199698388
1782941996793663500,0.48466357421875,-3.200827254876494,1.1382798808623105,-1.1915855737879872
1782941996803648500,0.4946484375,-2.8027374528616664,1.4225523842349648,-0.27814897899106145
1782941996813633500,0.504633544921875,-2.3890175355166194,1.6083759846195578,0.3272360313083976
1782941996823618300,0.514618408203125,-2.3916700958520174,1.3598590505652128,0.6365406115416437
1782941996833603300,0.524603271484375,-2.603595521220565,0.6446833667911589,0.7181677782621234
1782941996843588400,0.53458837890625,-2.5438304960876703,-0.167575575907249,0.6852719092238694
1782941996853573400,0.544573486328125,-2.3782231697797775,-0.7778077887758612,0.8526667034704237
1782941996863558400,0.554558349609375,-2.157017290368676,-1.0921177030157296,1.3748976297430693
1782941996873544400,0.56454443359375,-1.766416382804513,-1.6398993962608277,1.9036159452736376
1782941996883529500,0.574529541015625,-1.4339537759542464,-2.431302141277492,2.0969053514942524
1782941996893514500,0.584514404296875,-1.1791712056338786,-3.0117540050461886,2.337059969264269
1782941996903499300,0.594499267578125,-1.0328227065473794,-3.371885832327604,2.5906004305690526
1782941996913484300,0.604484375,-0.7557908950179815,-3.5867224689677357,2.8021196132242676
1782941996923469300,0.61446923828125,-0.11888824523091315,-3.5153152290970087,3.196962980663776
1782941996933454300,0.624454345703125,0.3030190702229738,-3.5120033280700445,3.6626281893014907
1782941996943439400,0.634439453125,0.5043219792902469,-3.5555642373770473,3.959745049743354
1782941996953424400,0.64442431640625,0.8991466420292854,-3.701117786693573,4.1551898804321885
1782941996963409400,0.654409423828125,1.5588865620464085,-3.844805542138219,4.365183460955322
1782941996973395500,0.6643955078125,1.9644991607815026,-4.107373359507322,4.380981334067881
1782941996983380200,0.674380126953125,2.426520459958911,-5.023577519321441,4.236576370264589
1782941996993365200,0.684365234375,2.684969151571393,-5.615733264887332,4.163246345637739
1782941997003350500,0.6943505859375,1.980414522793889,-5.9623272729426615,4.202701280930638
1782941997013335600,0.70433544921875,1.2800398100495338,-6.062377546712756,3.6822386064395305
1782941997023320300,0.7143203125,0.9837824890464544,-6.098410398602486,2.9564424521908164
1782941997033305300,0.724305419921875,1.1798825687736272,-5.955867721539735,2.520986503855884
1782941997043290400,0.734290283203125,2.009872087946534,-5.630615776720643,2.26587104831934
1782941997053275400,0.744275390625,3.370537924849987,-5.3669665938556195,2.393755085432529
1782941997063260400,0.754260498046875,4.9531607517927885,-5.340428131020069,2.371980622128397
1782941997073245200,0.7642451171875,6.226242413267493,-5.519480045312643,1.8379606930583714
1782941997083231500,0.7742314453125,7.172814823338389,-5.716274537044764,1.6256619043327867
1782941997093216500,0.784216552734375,8.051167683663964,-5.833729534602165,1.6207418374568223
1782941997103201300,0.794201171875,8.318926639935373,-5.665237592768669,2.1998526618801058
1782941997113186300,0.804186279296875,5.476420071265101,-5.071502469056845,4.254303750135004
1782941997123171300,0.81417138671875,1.8461726410865782,-4.814627894893288,6.083487554758787
1782941997133156400,0.82415625,1.8851339476436375,-5.954494095098972,4.511827143596112
1782941997143141400,0.834141357421875,2.783399715185165,-6.9229048274904486,2.6879116347640752
1782941997153126400,0.84412646484375,2.248893025511503,-6.313783334076404,2.1133236945927143
1782941997163111400,0.854111328125,1.427969440847635,-5.018314484226703,1.6882690210238098
1782941997173096400,0.864096435546875,1.0062257915228605,-3.3408786996454,0.9814408943563699
1782941997183082200,0.874082275390625,0.4368588008701801,-2.4708850868642327,1.696556956897676
1782941997193067300,0.8840673828125,1.3425064953565597,-3.4237995594382284,1.4530775786191223
1782941997203052300,0.89405224609375,-0.5197036728173494,-4.594491982801259,1.9037994851469993
1782941997213037600,0.90403759765625,-1.7222721206516027,-4.716730122981965,2.131552448114008
1782941997223022300,0.914022216796875,-2.1715257081925867,-4.399845901274681,2.3206031938515603
1782941997233007400,0.92400732421875,-2.9082068290710446,-4.436050018078088,2.57195535133183
1782941997242992400,0.933992431640625,-3.979546021017432,-4.507601634855568,2.528551093891263
1782941997252977400,0.943977294921875,-4.918118079984188,-4.2856446448162195,2.668918765002489
1782941997262962400,0.95396240234375,-6.367940456199646,-3.8743814729735253,2.990298252302408
1782941997272947200,0.963947265625,-8.669963598874212,-3.8225542551025744,3.0461990032225845
1782941997282933500,0.97393359375,-11.366304039287566,-3.8690842433482406,2.821253937283158
1782941997292918500,0.98391845703125,-13.598566247993707,-3.450904423984885,2.6890976296782494
1782941997302903300,0.9939033203125,-15.376079778873919,-2.7552935646414753,2.5471397667661306
1782941997312888300,1.003888427734375,-17.656877178168294,-1.9885975369885562,2.2937755388110874
1782941997322873300,1.013873291015625,-20.21892312990427,-1.329883452887833,2.2635478660687802
1782941997332858400,1.0238583984375,-22.95706214612722,-0.7177915653608739,2.716936361457407
1782941997342843400,1.033843505859375,-26.607270414316652,-0.19212971479147672,3.486887591513991
1782941997352828400,1.043828369140625,-32.17468008553982,0.4370098997786641,4.594072003823518
1782941997362813400,1.0538134765625,-39.06688991503715,1.550384983421862,5.00994705337584
1782941997372798500,1.063798583984375,-45.09994609019756,4.507260274071991,3.7057366786658763
1782941997382784300,1.0737841796875,-46.45772029731273,9.599274493020772,1.6138250438056885
1782941997392769300,1.083769287109375,-43.49869279706478,14.33891115207672,-0.36817572526633735
1782941997402754300,1.09375439453125,-37.625870438480376,15.74764631562233,-1.4725271061070262
1782941997412739300,1.1037392578125,-30.260174497461318,14.878672693538665,-1.7617858003944158
1782941997422724600,1.113724609375,-21.342872214531898,13.631100736373662,-0.9038304889965801
1782941997432709400,1.12370947265625,-11.093362711942195,12.509049009799957,1.4386245442442596
1782941997442694400,1.1336943359375,-2.4692975254118443,10.1403348421216,2.681203661558032
1782941997452679400,1.143679443359375,3.551984040802717,7.21509329161942,2.8125527444332836
1782941997462664400,1.15366455078125,7.498319281613826,5.821697151502967,1.9085368889324366
1782941997472649200,1.163649169921875,10.37096146082878,4.580619232532381,0.8246146942667663
1782941997482635500,1.173635498046875,11.874984213787316,3.75755805131793,0.5974070902228356
1782941997492620500,1.18362060546875,12.20586685796976,3.3706536601841446,-0.28347850345075126
1782941997502605300,1.193605224609375,12.543217821383475,3.1346003402531144,-1.567461205907166
1782941997512590300,1.20359033203125,12.188905201774835,3.0421728164464232,-2.744833545425534
1782941997522575400,1.213575439453125,12.077129418897629,2.9790701713234182,-3.5593534005269407
1782941997532560400,1.223560302734375,12.114513100874424,3.187942638862133,-4.628408865450322
1782941997542545400,1.23354541015625,12.19928280340433,3.5029660351336,-5.319242135128379
1782941997552530200,1.2435302734375,12.514723548305033,3.651498892521858,-5.515975252062082
1782941997562515500,1.253515380859375,12.972524599438906,3.5200276445716616,-5.590743200537562
1782941997572500500,1.26350048828125,12.912046457600592,3.6362627449452876,-5.410021891728043
1782941997582486300,1.273486328125,12.833960178357362,3.8588755685448644,-4.912255325430631
1782941997592471300,1.28347119140625,12.869170607948302,3.738137603794038,-4.3272634801447385
1782941997602456300,1.293456298828125,12.646746000397204,3.3542686348333954,-3.754111125734448
1782941997612441300,1.30344140625,12.22390052731037,3.200822286440432,-3.159010558888316
1782941997622426400,1.31342626953125,11.879231349837779,3.2057278863996266,-2.5676363190889355
1782941997632411400,1.323411376953125,11.645814223629236,3.1882679252937436,-2.0141034419059753
1782941997642396400,1.333396484375,11.318055264425277,3.082494597701728,-1.4694680107973515
1782941997652381400,1.34338134765625,11.072420461678504,2.9042198052614925,-0.9019758741058409
1782941997662366500,1.353366455078125,11.01838258202076,2.752528483842313,-0.2639006734080612
1782941997672351500,1.3633515625,11.1036491281569,2.59477304007858,0.38113106842935085
1782941997682337300,1.373337158203125,11.07777935836315,2.497083942481875,0.9645346216104924
1782941997692323000,1.383322998046875,10.97818968784213,2.518380705271661,1.5439578729838133
1782941997702307800,1.393307861328125,10.979897660803795,2.5449384573295712,2.0867684267528355
1782941997712292900,1.40329296875,10.980941616898775,2.493610128891468,2.4931223453745246
1782941997722278000,1.41327783203125,10.987512811982631,2.451283729815483,2.817246162946522
1782941997732263000,1.423262939453125,10.987291862708329,2.4148308989480136,3.0294495284736156
1782941997742248000,1.433248046875,10.797669454562664,2.364524899294972,3.154523768863082
1782941997752232700,1.443232666015625,10.614815809899568,2.274167752021551,3.213548789283633
1782941997762218000,1.453218017578125,10.520271732330322,2.1794716987609863,3.4223633891552683
1782941997772203000,1.463203125,10.441293472683428,2.062929724395275,3.648467854262888
1782941997782188000,1.47318798828125,10.213944852733611,1.9394569278530776,3.7263548115417358
1782941997792173800,1.483173828125,9.844241771769523,1.7845742630466819,3.7070842938825486
1782941997802158800,1.493158935546875,9.679245855358243,1.6779297055780886,3.6353058826118705
1782941997812143900,1.503143798828125,9.55360521325767,1.6344189190231262,3.58547363795042
1782941997822129000,1.51312890625,9.352205858078598,1.5590822307489811,3.549854043036699
1782941997832114000,1.523114013671875,9.16355667887926,1.3999015764877198,3.5466853498727082
1782941997842099000,1.533098876953125,9.033990387767552,1.1995502690568565,3.605905016082525
1782941997852084000,1.543083984375,8.885283342856168,1.0398016056492925,3.6947038279980418
1782941997862069000,1.553069091796875,8.531633571070433,0.9156060477904975,3.807803552955389
1782941997872053800,1.5630537109375,8.182985553094744,0.7547327642671764,3.9684544258996843
1782941997882038800,1.573038818359375,7.9886548211276525,0.6027414369881152,4.110360558624565
1782941997892025000,1.583025146484375,7.613844187891483,0.4813948388196528,4.229597178901732
1782941997902009900,1.593009765625,6.905591873639821,0.2883392413549125,4.288592680966854
1782941997911995000,1.602994873046875,6.087298052957654,-0.14292963055372238,4.463642373880743
1782941997921980000,1.61297998046875,5.227963196834922,-0.6683344376221299,4.837009530310333
1782941997931965000,1.62296484375,4.189207008585334,-1.269261518664658,5.360114828264713
1782941997941950000,1.632949951171875,2.876724480092525,-1.9119019814513623,5.67573560590744
1782941997951934700,1.642934814453125,1.7357167086362837,-3.3177886236980556,5.778689784425497
1782941997961919700,1.652919677734375,0.577827360484004,-5.709992095774412,5.151044207805395
1782941997971905000,1.662905029296875,-2.705048063004017,-6.7871081175565715,4.355780257315933
1782941997981890000,1.67289013671875,-7.522882644984126,-6.847318548369407,3.338049613699317
1782941997991875800,1.682875732421875,-12.606020022255182,-7.500704130923747,2.171796195697039
1782941998001860900,1.69286083984375,-18.239923734605313,-8.16908153090477,1.363922646742314
1782941998011846000,1.702845947265625,-23.548974730587005,-8.047028684163093,0.8394370003454387
1782941998021831000,1.712830810546875,-28.5710699023962,-5.2478351875185965,-0.1011594040557742
1782941998031815700,1.722815673828125,-32.925870208764074,1.685231406893581,-2.356576278378069
1782941998041801000,1.732801025390625,-36.567682404530046,9.004767800414562,-6.052558163487911
1782941998051786000,1.742785888671875,-36.55596624777317,11.280853953278065,-9.096784989854694
1782941998061771000,1.75277099609375,-34.19833695321083,11.105256563353539,-10.685318502146005
1782941998071755800,1.762755859375,-30.526106238305566,10.76918102670312,-11.175616632258892
1782941998081740800,1.77274072265625,-24.90641225309372,8.469206633251906,-9.371289913254977
1782941998091726800,1.782726806640625,-18.451593139386176,6.085041213941574,-7.5289827154248945
1782941998101712000,1.7927119140625,-11.879672079342603,4.537070598185062,-6.518565901952981
1782941998111697000,1.80269677734375,-6.277353007301688,3.4139930356949564,-5.820640335926413
1782941998121682000,1.812681884765625,-2.2215473379462956,2.2789809975221753,-5.522644646823406
1782941998131667000,1.8226669921875,0.6667331399053334,1.2408414798662066,-5.2095127633869645
1782941998141652000,1.83265185546875,2.688311447736621,0.5452994479753077,-4.989397017300129
1782941998151636700,1.84263671875,3.960420464786887,0.23370858343578874,-5.018817173051834
1782941998161621800,1.852621826171875,5.164207640761137,-0.1141521931523457,-4.632667399677634
1782941998171606800,1.862606689453125,6.575106119820475,-0.13976451758630573,-4.224736002606154
1782941998181592000,1.872592041015625,7.685777205201983,0.01579674060139805,-3.687582305555045
1782941998191577900,1.882577880859375,8.311763324177265,-0.033486016951128836,-3.190489400735497
1782941998201563000,1.89256298828125,8.741458809289336,-0.16670016304589808,-2.734876799556613
1782941998211548000,1.9025478515625,9.21532719812691,-0.26367095630541443,-2.2677459022805095
1782941998221533000,1.912532958984375,9.808015443134307,-0.38376667762994765,-1.894767745168507
1782941998231517700,1.922517578125,10.346114604341983,-0.6477724919129163,-1.4078943288072943
1782941998241503000,1.9325029296875,10.667432132321595,-1.0679221500445157,-0.922070129238069
1782941998251488000,1.942488037109375,10.849638126730918,-1.54995945148617,-0.3935126668250188
1782941998261473000,1.95247314453125,10.934050101864337,-2.0563100139945742,0.15497447127569466
1782941998271457800,1.962457763671875,10.8080844655931,-2.5393010359644888,0.5309935304535552
1782941998281442800,1.97244287109375,10.47989529827833,-3.055163230922818,0.8871220038451254
1782941998291428900,1.982428955078125,10.464695391058921,-3.564966271972656,1.3650661176890133
1782941998301414000,1.992413818359375,10.383836139971017,-3.9804789179533717,1.867849196974188
1782941998311399000,2.00239892578125,10.063297195148467,-4.3020571426957845,2.270429296145588
1782941998321384000,2.012384033203125,9.559808744072914,-4.497326032295823,2.506005207823217
1782941998331369000,2.022368896484375,9.143741386818885,-4.639194755619764,2.589950734488666
1782941998341354000,2.03235400390625,8.745377444037794,-4.74936894851923,2.6284286414429543
1782941998351338800,2.0423388671875,8.15867470318079,-4.86243389442414,2.7905852427750824
1782941998361323800,2.05232373046875,7.442657015624642,-5.067898307085037,2.9552506120577453
1782941998371308800,2.062308837890625,6.893893252539634,-5.369861146253347,3.1864529848262664
1782941998381293800,2.0722939453125,6.38617169393897,-5.6647799121290445,3.3722640179902315
1782941998391279900,2.08227978515625,5.740766004222631,-5.960103167152404,3.664021104964614
1782941998401265000,2.092264892578125,4.674828379058837,-6.35192923259735,3.939968628388643
1782941998411250000,2.10225,3.3990532407164573,-7.0566744155108925,4.172213203686476
1782941998421235000,2.11223486328125,2.2347166161209344,-8.090298501569032,4.42847636795342
1782941998431219700,2.1222197265625,0.16357786630690097,-9.198446790474653,4.7396194156602025
1782941998441204700,2.132204833984375,-3.387613562813401,-10.534306102901697,5.064270179715752
1782941998451190000,2.14218994140625,-7.3301704541295765,-11.866217554485797,5.506090986907481
1782941998461175000,2.152175048828125,-12.062109544420242,-12.595630730187892,6.354322849735618
1782941998471159800,2.162159912109375,-19.497863941049573,-12.57616381317377,7.435437585765123
1782941998481144800,2.172144775390625,-27.731102594566345,-11.929662729436158,8.35446381726265
1782941998491131000,2.182130859375,-36.78539342756271,-10.441500393432378,8.584955995935202
1782941998501116000,2.192115966796875,-43.63101452436447,-8.62540900235474,8.282263673448561
1782941998511100700,2.2021005859375,-49.35511113333702,-4.776655307112634,5.897387475520372
1782941998521086000,2.2120859375,-55.23265642879009,-0.10822086687460541,3.4920831143304705
1782941998531071000,2.222071044921875,-56.976079474020004,4.581918624693155,1.018110290583968
1782941998541056000,2.232055908203125,-56.14527746942043,10.464356368362903,-1.306480219338089
1782941998551040800,2.242040771484375,-52.09836120896339,14.668203896719216,-3.289785056746006
1782941998561025800,2.25202587890625,-45.346193471884725,17.498991970545053,-3.864163738080859
1782941998571010800,2.2620107421875,-37.09184656388759,19.612949286866186,-3.3561388126194474
1782941998580995800,2.271995849609375,-28.20471028664112,19.93632082476616,-2.6360800329789518
1782941998590982000,2.28198193359375,-20.269369707071778,19.14346715028882,-2.567331783184409
1782941998600967000,2.291966796875,-14.705046311426162,19.497063146060704,-4.442940654374659
1782941998610952000,2.301951904296875,-9.986035091769695,19.654436312508583,-5.779692823988199
1782941998620937000,2.31193701171875,-4.452857945016026,16.965564308279752,-6.6344970509439705
1782941998630921700,2.321921630859375,-0.6703337947458028,14.45735866780281,-7.834998629376292
1782941998640906800,2.33190673828125,2.0762848805308343,11.67292317982912,-9.096693219918013
1782941998650891800,2.341891845703125,4.717161792397499,9.410464570301771,-10.318424633383751
1782941998660877000,2.351876953125,6.554025922390818,7.79807496612668,-10.730309151995181
1782941998670862000,2.361862060546875,7.2825494557768105,7.373332134985923,-11.631115836191176
1782941998680848000,2.371847900390625,7.98955498483777,7.551705419364571,-12.571803279876708
1782941998690833200,2.381833251953125,9.653508187511562,7.76038382563591,-12.83853464666605
1782941998700818200,2.391818115234375,11.53746490806937,7.471095759123563,-12.449894225519895
1782941998710803000,2.401802978515625,12.532046439027786,6.312585648724436,-11.806608012175559
1782941998720788000,2.4117880859375,13.028639869892597,5.408646511721611,-10.788029519557952
1782941998730773000,2.42177294921875,13.36220780763626,5.516100339746475,-9.454528168433905
1782941998740758000,2.431758056640625,13.505585181957482,6.0197752533048385,-8.187123383551835
1782941998750743000,2.441742919921875,13.256885146421194,6.533348460543155,-7.170209609276056
1782941998760728000,2.45172802734375,12.771099525296687,7.421056593713164,-5.95285743380785
1782941998770713000,2.461713134765625,12.404029130923748,8.13456025262177,-4.802290683628619
1782941998780699100,2.47169921875,11.88581306631565,8.62544991888702,-3.8608597280994057
1782941998790684000,2.481683837890625,11.431239745056628,8.916310349282622,-2.955696894520521
1782941998800669000,2.4916689453125,11.3040267390728,8.855834545531868,-2.189770389935374
1782941998810654000,2.501654052734375,11.172867041289805,8.719249900090693,-1.5669877431765198
1782941998820639000,2.511638916015625,11.315608455795049,8.616522516065835,-1.0132982141271234
1782941998830624000,2.5216240234375,11.486205845475196,8.407387013676763,-0.610282353886962
1782941998840609000,2.531609130859375,11.660783829224108,8.06559193033576,-0.34590427222549913
1782941998850594000,2.541593994140625,11.876771681725979,7.558238620525598,-0.1594891356885433
1782941998860579000,2.5515791015625,12.079275783276557,7.146845100301504,0.02409486907571554
1782941998870564000,2.561564208984375,12.293049466860294,6.845092689013481,0.1421311736524105
1782941998880550000,2.5715498046875,12.321081967645883,6.495128912264108,0.10822510465830563
1782941998890535200,2.58153515625,12.18529636362791,6.039536769351363,0.07018383555561304
1782941998900520200,2.591520263671875,12.031909636467695,5.593501559334993,0.15763035607933998
1782941998910505000,2.6015048828125,11.625433114379645,5.225395392173528,0.38697774863094087
1782941998920490000,2.611489990234375,11.233963607287405,4.978620771741867,0.4663413543336093
1782941998930475000,2.62147509765625,10.783040040707588,4.943125095468759,0.32244521683529015
1782941998940460000,2.6314599609375,10.353409437525272,4.942967274558544,0.34543592406138773
1782941998950445000,2.641445068359375,9.922685778409242,4.8808702993467445,0.5083991656012833
1782941998960429800,2.651429931640625,9.5295275875777,4.747382743138075,0.5895952474281192
1782941998970415000,2.6614150390625,9.315055400335789,4.607258817654848,0.6599427491128445
1782941998980401200,2.671401123046875,9.267126358947158,4.489410729126632,0.756487352849543
1782941998990386000,2.681385986328125,9.322726665616035,4.284905809147656,0.8427015550993382
1782941999000371000,2.691370849609375,9.327437912046909,4.073988099516928,0.8964541150096803
1782941999010356000,2.70135595703125,9.340397346863151,3.839976514546573,1.0039552893076091
1782941999020341000,2.711341064453125,9.525106848526,3.4410467545762655,1.111409044267237
1782941999030326000,2.721325927734375,9.724117262741922,2.9909689911708233,1.180060994080454
1782941999040311000,2.73131103515625,9.551185292634367,2.7112363962501287,1.3762265402592717
1782941999050296000,2.741296142578125,8.887118157067894,2.4072671856954693,1.8353174850732088
1782941999060281000,2.751281005859375,8.065214329195022,1.7622116245910524,2.294656559429318
1782941999070267000,2.761266845703125,7.185223638534546,0.874877877691388,2.6883397970482705
1782941999080252000,2.771251953125,6.183305773338675,0.014745733711123466,3.2245831012561914
1782941999090237000,2.78123681640625,4.978888482767343,-1.0468617532938718,3.742427117681503
1782941999100222200,2.79122216796875,4.180309416380524,-2.824663161204755,4.07744525423348
1782941999110207000,2.80120703125,3.9600773504376408,-5.77409661141634,4.266790014481544
1782941999120192000,2.81119189453125,2.4403742132663724,-9.626479310810565,4.264782181790471
1782941999130177000,2.821177001953125,-0.9075853845506906,-13.88137079770565,5.942357667103409
1782941999140162000,2.831162109375,-6.480948411220312,-19.598889197331665,9.00831526376307
1782941999150147000,2.84114697265625,-13.990188899821042,-25.842631611454486,12.242315304923057
1782941999160131800,2.8511318359375,-22.233952454483507,-29.226646272993086,14.334170679551361
1782941999170118100,2.8611181640625,-31.386417245984077,-25.389428409504887,13.625589863997696
1782941999180103200,2.871103271484375,-39.96770361349582,-15.815012463408708,10.876630178552865
1782941999190088000,2.881087890625,-44.030266355895996,-3.499721061863005,6.349249199733138
1782941999200073000,2.891072998046875,-44.23952519240379,6.19985884873271,0.991018431649357
1782941999210058000,2.90105810546875,-42.0645426217556,5.339460747292637,0.6805439308539033
1782941999220043000,2.91104296875,-37.11534902002811,2.2787565411165356,3.159862207281589
1782941999230028000,2.921028076171875,-31.533015335917472,2.776590911953151,2.1559739187955853
1782941999240013000,2.931012939453125,-25.926746649467944,5.117883696481585,-0.6762804281905294
1782941999249998000,2.940998046875,-19.749215367877483,6.16860154068172,-2.213691656009853
1782941999259983000,2.950983154296875,-13.78166656089425,5.746615899294614,-3.634376492807269
1782941999269969000,2.960968994140625,-9.430025010818243,5.517178198111057,-5.213314493757486
1782941999279954000,2.970953857421875,-6.476116753280162,5.370034164732695,-6.4607788988947865
1782941999289939000,2.98093896484375,-3.8936856006413696,5.297823499524593,-7.216474516844749
1782941999299924000,2.990924072265625,-1.3132792318284512,5.747661024433374,-7.7512208604931825
1782941999309909000,3.000908935546875,1.1205652874082326,6.592631839638948,-8.24580645866692
1782941999319894000,3.01089404296875,3.2084049966543913,6.927934638351202,-8.708527430546283
1782941999329879000,3.020879150390625,5.0210687513709065,7.06747754907608,-8.811130895930528
1782941999339864000,3.030864013671875,6.609959991058707,7.251358783221244,-8.502602122375368
1782941999349849000,3.04084912109375,8.065055923762918,7.192477555185556,-7.749590628942847
1782941999359835000,3.0508349609375,9.337370692518354,6.862659325364231,-6.997542427584529
1782941999369820200,3.060820068359375,10.02933062813878,6.421613594198226,-6.504167374244332
1782941999379805200,3.07080517578125,10.353999804633855,6.477431927531957,-5.826552190318703
1782941999389790000,3.0807900390625,10.765115092438458,6.823034586462378,-4.928918875461816
1782941999399775000,3.09077490234375,11.027178467416762,6.952433704313635,-3.9341052893131967
1782941999409760000,3.100760009765625,11.03201597057581,7.13321931053102,-3.006804858206212
1782941999419745000,3.1107451171875,10.928770700156688,7.102336096489429,-2.134174467180669
1782941999429730000,3.12072998046875,10.823882923227547,6.897505597817897,-1.377343269329518
1782941999439714800,3.13071484375,10.696402206218242,6.725240567186474,-0.6946751859284936
1782941999449700000,3.1407001953125,10.410769739603996,6.556211449736356,-0.0029254361597588286
1782941999459686100,3.15068603515625,10.20741808131337,6.300011998355388,0.48340577678326513
1782941999469671000,3.1606708984375,10.117179591983556,6.038402212363481,0.7117369414970278
1782941999479656000,3.170656005859375,9.788051682513952,5.877886071714759,0.7417558668594807
1782941999489641000,3.180640869140625,9.506961535504459,5.646605373013019,0.7677424679659307
1782941999499626000,3.1906259765625,9.44539910556078,5.361637507787346,0.7205578152038157
1782941999509611000,3.200611083984375,9.165805334588885,5.126171047833561,0.7734214634504168
1782941999519596000,3.210595947265625,8.982709113341569,4.819077860039473,0.829838128003478
1782941999529581000,3.2205810546875,8.710445831388235,4.468168911394477,0.8490073772452771
1782941999539566000,3.230566162109375,8.067520268049835,3.997199751129746,0.8198691071748733
1782941999549551000,3.240551025390625,7.089488889876008,3.395551370075345,0.6752469934895634
1782941999559537000,3.250536865234375,6.295751418301463,2.5398569162815807,0.665290539881587
1782941999569522000,3.26052197265625,5.744277227213979,1.5425450835764407,0.7133657848078757
1782941999579507200,3.270507080078125,3.8051387176603075,-0.022118308305740356,1.189366728694737
1782941999589492000,3.280491943359375,-0.39541853697896,-2.6369378188520667,2.603404674823582
1782941999599477000,3.29047705078125,-6.138140935966372,-6.209979260730743,4.056733890116215
1782941999609462000,3.3004619140625,-12.33248365162611,-10.338707542955875,4.867097502321005
1782941999619447000,3.310447021484375,-20.023019449532033,-14.214989004331827,4.7771389989763495
1782941999629432000,3.32043212890625,-29.29703907512426,-16.960951261526347,3.850674726432562
1782941999639416800,3.330416748046875,-38.7620898066163,-15.429001221722363,1.7629083746835588
1782941999649403100,3.340403076171875,-47.21003737874031,-10.608200191152095,-1.438454594504833
1782941999659388200,3.35038818359375,-50.85472308411598,-6.741532945817709,-3.1780367463976145
1782941999669373000,3.360373046875,-50.928943335580826,-5.355965891891717,-3.473730296038091
1782941999679358000,3.37035791015625,-46.75310960330963,-6.061957275474071,-3.1792163115710017
1782941999689343000,3.380343017578125,-37.62419870587587,-7.804812165427207,-1.7309909952886402
1782941999699331600,3.39033154296875,-27.608310912156103,-9.974769016867876,-0.39424152908883986
1782941999709316600,3.400316650390625,-20.30275525932312,-12.417875285446643,-0.6517137038193642
1782941999719301400,3.41030126953125,-14.443821140837668,-11.94707797461748,-2.3024114113397895
1782941999729286400,3.420286376953125,-10.795993045783042,-9.416420263835787,-4.84418599781096
1782941999739272700,3.430272705078125,-7.021776705130934,-7.366558110806346,-6.814292477080225
1782941999749257500,3.440257568359375,-2.2483722165077924,-4.994716751018166,-6.8773086129635566
1782941999759242500,3.450242431640625,2.23129365593493,-2.417506547898054,-5.531703567069768
1782941999769227500,3.4602275390625,6.671836893779039,-0.7219570144772529,-4.888007019358873
1782941999779212500,3.470212646484375,9.318151612785458,2.2418764247477054,-3.78823726722002
1782941999789197600,3.480197509765625,10.721333233857154,5.454161477705836,-2.3853119589969514
1782941999799182300,3.490182373046875,10.937546711808443,8.024634481525421,-1.7396490796491502
1782941999809167600,3.500167724609375,10.919967800498009,10.632979243099689,-1.6578826505884527
1782941999819152600,3.510152587890625,10.572677626872062,12.595915976870058,-1.1616309458333998
1782941999829137700,3.5201376953125,10.045042576533556,13.611207118380069,-0.5475443408252672
1782941999839123500,3.53012353515625,10.85539917447567,14.733166490495204,0.30783889159485694
1782941999849108500,3.5401083984375,11.661301715618372,15.434737719547748,1.5178848357029258
1782941999859093500,3.550093505859375,12.526602202147245,14.93041457121372,3.2334497138008476
1782941999869078300,3.560078369140625,14.081405878794193,14.739488679254054,4.36051459236145
1782941999879063600,3.5700634765625,15.152140090584753,14.36000420898795,4.813867139653861
1782941999889048600,3.580048583984375,15.438125608420371,13.858057726657389,4.6772985685646535
1782941999899033600,3.59003369140625,15.030768796366452,13.871384825742243,4.36312506712079
1782941999909018600,3.6000185546875,14.443138419270515,14.157660266435146,3.932846813684702
1782941999919003400,3.61000341796875,13.625634287661313,14.299551786112785,3.557008590966463
1782941999928989400,3.619989501953125,12.938930957394838,14.28715758396387,3.0388679296821355
1782941999938974700,3.629974609375,12.364439463335275,14.078825799173115,2.576853937028348
1782941999948959500,3.63995947265625,11.979743395900726,13.462186769735812,2.2604480003572998
1782941999958944500,3.649944580078125,11.678532251882553,12.580582798659801,1.9401815888658165
1782941999968929500,3.659929443359375,11.445611969280241,11.655451820546388,1.693269021268189
1782941999978914600,3.66991455078125,10.9738443521142,10.712607491087914,1.4689749665834009
1782941999988899600,3.679899658203125,10.380759216743707,10.024898783171176,1.1272039217051117
1782941999998884400,3.68988427734375,10.264279201698303,9.491078906717895,0.769866035991162
1782942000008869400,3.699869384765625,10.116116931188106,8.989735650977492,0.5262773521192372
1782942000018855700,3.709855712890625,9.892948811793326,8.472728962159156,0.432053556012921
1782942000028840400,3.71984033203125,9.76752210470438,7.976549372792244,0.483688539247401
1782942000038825500,3.729825439453125,9.731008191299438,7.5301313009381285,0.41067791930064557
1782942000048810500,3.739810546875,9.774918644696474,7.0850640591710805,0.5040921891223639
1782942000058795500,3.74979541015625,9.733492409330607,6.617516105526685,0.6956319021314382
1782942000068780500,3.759780517578125,9.659078096598385,6.121119074016809,0.8003522866044193
1782942000078765300,3.769765380859375,9.619860184931754,5.594639623454213,0.9095012281093746
1782942000088750600,3.77975048828125,9.395670905795694,5.302077065315842,1.004677539167553
1782942000098735600,3.789735595703125,8.984577829822898,5.230290762999654,0.9907185719199478
1782942000108720600,3.799720703125,9.009320056891442,4.958122758114338,0.8433021513409912
1782942000118706400,3.80970654296875,9.2327500420928,4.653520510353148,0.7675663076814263
1782942000128691500,3.81969140625,9.296702582043409,4.413204856802523,0.846730372224003
1782942000138676500,3.829676513671875,9.05514715756476,4.059612952683866,1.0406745890915394
1782942000148661500,3.83966162109375,8.857812567606567,3.7256788119763136,1.199127221339196
1782942000158646500,3.849646484375,8.706828809934853,3.4620617778152227,1.4174056689962744
1782942000168631600,3.859631591796875,8.292666409519315,3.052835372497141,1.607623997208476
1782942000178616600,3.869616455078125,7.58423172443807,2.506870592480898,1.748681696410477
1782942000188601600,3.8796015625,6.912201647168398,1.9230700028061867,1.8241393807157873
1782942000198586400,3.88958642578125,6.121922207093238,1.2023057052448392,2.03309499649331
1782942000208572700,3.89957275390625,5.291136569106579,-0.35889965513795613,2.3011017900459465
1782942000218557700,3.9095576171875,3.8255163197785613,-2.4274065951436756,1.9631094599887728
1782942000228542500,3.91954248046875,1.8162275846779345,-3.136818600824475,0.9346589041110127
1782942000238527500,3.929527587890625,-1.5920342138886452,-3.2384704645723104,-0.9757434133671223
1782942000248512500,3.939512451171875,-7.524294849869609,-3.5179461621224877,-2.734115752056241
1782942000258497500,3.94949755859375,-14.002528156912327,-6.05315788294673,-2.521413789357245
1782942000268482600,3.959482666015625,-23.77720948572159,-12.491243303996324,-0.7723902207065373
1782942000278467300,3.96946728515625,-39.29211788957119,-16.712027938628196,-0.13976371386870742
1782942000288452600,3.97945263671875,-55.6368229203701,-10.466346080875397,-3.134257518164813
1782942000298434600,3.9894345703125,-67.09848352265358,2.942086302319169,-8.490361649483441
1782942000308419600,3.999419677734375,-68.74245835165978,11.585060187458991,-13.588554557067155
1782942000318404400,4.009404296875,-67.30631144957542,8.68089591177702,-13.193562721067666
1782942000328389400,4.019389404296875,-55.56479111886024,4.2284202440768475,-7.759843727409839
1782942000338374700,4.029374755859375,-39.99676604185104,2.577106158223748,-4.0751781860843295
1782942000348360400,4.0393603515625,-27.59311568111181,2.06903257131502,-4.15384431104213
1782942000358345500,4.049345458984375,-17.72231089658737,1.842944618950784,-4.320143711267411
1782942000368330500,4.05933056640625,-10.800112756061553,1.3200745910570024,-4.204346125528216
1782942000378315500,4.0693154296875,-5.698226254656911,0.8457356620982289,-3.930031756263971
1782942000388300500,4.079300537109375,-1.940894997832179,0.7693874586939812,-3.8281492986306547
1782942000398285600,4.08928564453125,0.7230120764881373,1.1947130581587553,-3.871239960077405
1782942000408270600,4.0992705078125,2.832641592738032,1.7263304561316966,-3.718120359420776
1782942000418255600,4.109255615234375,4.519159093919396,2.09632287543118,-3.391191129039228
1782942000428240600,4.11924072265625,5.573259566295147,2.6137586033165454,-3.16975494800359
1782942000438226400,4.129226318359375,6.466167021673917,3.2238539101988075,-2.916334605947137
1782942000448211500,4.13921142578125,8.022227420383691,3.473010165069997,-2.4465061401501296
1782942000458196500,4.149196533203125,9.619649757051468,3.2689091497167944,-1.6797412850446998
1782942000468181500,4.159181396484375,10.796273616290092,3.1332989022657274,-0.9061170655637979
1782942000478166500,4.16916650390625,11.468244656848906,3.0277433090776205,-0.18045294019691646
1782942000488151600,4.179151611328125,11.770622506558894,2.9137150710985065,0.5436898208215832
1782942000498136600,4.189136474609375,12.052211250740289,2.8290155111953617,1.354598499688506
1782942000508121600,4.19912158203125,12.237393630611896,2.7301082699805495,2.0932487286828456
1782942000518106400,4.2091064453125,12.289336583817004,2.62750451233536,2.5494828227609396
1782942000528092700,4.2190927734375,12.292500016283988,2.3963667292356488,3.020649551424384
1782942000538077700,4.22907763671875,12.224452315974235,2.0006644068792463,3.5247558421373366
1782942000548062500,4.2390625,12.159841604375838,1.6452166457608342,3.8418922850400206
1782942000558047500,4.249047607421875,12.024821724033355,1.525992592704296,3.9048827019602057
1782942000568032500,4.259032470703125,12.024185764217377,1.4876386043906211,3.9232273369461295
1782942000578017500,4.269017578125,12.071487613618373,1.393760004992783,3.8854333206027745
1782942000588002600,4.27900244140625,12.04566343653202,1.2126990889653564,3.716906599716842
1782942000597987300,4.2889873046875,12.1066477743268,0.983644103489071,3.618575697085261
1782942000607972600,4.29897265625,12.127536248576641,0.7215880350343883,3.4485797804296014
1782942000617958700,4.308958740234375,12.028749711132049,0.4948566702000797,3.2546360019534823
1782942000627943400,4.318943359375,11.920772151494026,0.337289150223881,3.132109400220215
1782942000637928400,4.328928466796875,11.847197212195395,0.17487243665084243,3.0960338782325385
1782942000647913500,4.33891357421875,11.682933701711892,0.061452393697947263,3.017006811007857
1782942000657898500,4.3488984375,11.376044512057303,-0.016059008266776798,2.9570100229457017
1782942000667883500,4.358883544921875,11.141351959085464,-0.062235945291072126,2.941695841696858
1782942000677868500,4.36886865234375,10.901454823207855,-0.10922317578494548,2.9265257450938225
1782942000687853600,4.378853515625,10.640450601893663,-0.13251403500139713,2.8697505494266746
1782942000697835300,4.388835205078125,10.479638108646869,-0.08360197392478584,2.890261422535777
1782942000707820300,4.3988203125,10.159100332868098,-0.06888517404720186,2.8747455812349916
1782942000717806300,4.408806396484375,9.653560209959744,-0.1686290122166276,2.752217518197
1782942000727791400,4.418791259765625,9.390707730430364,-0.4157661823503673,2.6014506181463597
1782942000737776400,4.4287763671875,9.184685391625761,-0.6574648146919906,2.510169926287234
1782942000747761200,4.43876123046875,8.600835702112317,-0.9912640769734978,2.44030947746709
1782942000757746200,4.44874609375,7.033675817239284,-1.4642400470159946,2.2882176124230025
1782942000767731200,4.458731201171875,5.061039527231454,-2.298694728904217,2.1084693864293396
1782942000777716500,4.468716552734375,2.064384599378705,-3.5399072340399025,1.6866010878115891
1782942000787701200,4.478701171875,-3.7955794466763733,-4.842167059203982,0.722181617013365
1782942000797686300,4.488686279296875,-12.900045054161549,-5.572668030142784,-0.8610517430432141
1782942000807672300,4.49867236328125,-27.4770553527832,-5.584460174745321,-2.9857430732160806
1782942000817657300,4.5086572265625,-47.68010988242626,-5.389423924857378,-6.1458098631590605
1782942000827642000,4.51864208984375,-66.46337944672108,-3.7021740177482365,-8.1843767151922
1782942000837627400,4.52862744140625,-69.87875020051003,3.2324948972940444,-9.546229716053604
1782942000847612400,4.5386123046875,-69.28552127275466,9.820212076884507,-10.342062698602676
1782942000857597400,4.548597412109375,-69.28574572916031,11.251294681316613,-7.372003516730666
1782942000867582200,4.558582275390625,-63.02368322997093,10.74131569917798,-3.2039298970669505
1782942000877567200,4.568567138671875,-45.93142146401405,7.954835553634166,-0.520111084574461
1782942000887552300,4.57855224609375,-32.05059777879715,3.874297594082355,0.10055106289908289
1782942000897538300,4.588538330078125,-21.57776818112135,1.4001717717312276,-1.466618320454657
1782942000907523300,4.5985234375,-12.195788531547784,0.5799503439873457,-2.8045611611574888
1782942000917508400,4.60850830078125,-4.560507003352046,-0.3426914476588368,-4.869804715453088
1782942000927493400,4.618493408203125,1.3204659284621476,0.02540595167428255,-7.677554151257872
1782942000937478400,4.628478515625,6.157109840330481,1.4297270981699228,-10.39103160443306
1782942000947463200,4.638463134765625,10.840975512325763,2.609387548625469,-12.196832487642764
1782942000957448200,4.6484482421875,14.188586150574682,3.189048262016475,-13.718921643167734
1782942000967433200,4.65843310546875,15.737309630525111,4.073575719323754,-15.49892640634179
1782942000977418200,4.668418212890625,17.095846054184435,4.984808520466089,-15.802202081674336
1782942000987404300,4.678404296875,18.414300642824173,6.090082130718231,-15.140171420371532
1782942000997389300,4.688389404296875,18.128562962269783,7.743852962073683,-14.407671969091892
1782942001007374300,4.698374267578125,16.821712302184103,9.54998585371673,-13.256726156467199
1782942001017359400,4.708359375,15.7245354891479,11.615034469962119,-11.987966449844837
1782942001027344100,4.71834423828125,14.95881999696493,12.809223211985826,-10.842236910563706
1782942001037329200,4.7283291015625,14.390335049843788,12.582701105988026,-9.55912251537442
1782942001047314400,4.738314453125,14.312850828146933,11.768431718516348,-8.31309544956386
1782942001057299500,4.748299560546875,14.49131705150604,10.89305056747794,-7.237362991094589
1782942001067284200,4.7582841796875,14.790954662597178,9.632322191619872,-6.505396623778343
1782942001077270300,4.768270263671875,14.843240145629643,8.421161856529116,-5.876760867077111
1782942001087255300,4.77825537109375,14.76083074249029,7.425349906992912,-5.157444722497463
1782942001097240300,4.788240234375,14.70715760449171,6.5608116370081895,-4.632693410901725
1782942001107225300,4.798225341796875,14.283119706749915,6.0944298045337195,-4.410319364494085
1782942001117210400,4.80821044921875,13.50376264270544,5.925100242832302,-3.898966755914688
1782942001127195400,4.8181953125,12.785949888426064,5.432312633991241,-3.309493673561513
1782942001137180400,4.828180419921875,12.002324645543098,5.217628849825263,-3.038652241104841
1782942001147165200,4.838165283203125,11.154666198688744,5.206680754831433,-2.5977441648438573
1782942001157150200,4.848150146484375,10.641123971110583,4.970210086271167,-2.074237592612207
1782942001167136300,4.85813623046875,10.372542008018494,4.772073824541271,-1.5985168539062142
1782942001177121300,4.868121337890625,10.211237347340584,4.527672362981736,-1.1313058771312237
1782942001187106300,4.878106201171875,10.112600447499752,4.079033107946813,-0.798573221167922
1782942001197091300,4.88809130859375,10.059647440469265,3.6587227062955496,-0.5495554979845881
1782942001207076400,4.898076416015625,9.89365257614851,3.368219418774545,-0.41105858918130395
1782942001217061400,4.908061279296875,9.518643205469846,3.375240403452515,-0.6127259476467967
1782942001227046100,4.918046142578125,9.020665626770258,3.5429917560517787,-0.4552937444880604
1782942001237031200,4.92803125,8.497572896036505,3.5121427365407345,-0.1714759260803461
1782942001247016200,4.93801611328125,8.185964861166477,3.4789670276477933,-0.007743161472678184
1782942001257001500,4.94800146484375,8.117137408655882,3.514913662558794,0.0927889044649899
1782942001266987300,4.9579873046875,8.193654831147194,3.3885482133150098,0.1615279480397701
1782942001276972300,4.96797216796875,8.328964634346962,3.075853552252054,0.2773473072193563
1782942001286957300,4.977957275390625,8.584919171056152,2.6419930564150214,0.6449993739377707
1782942001296942300,4.9879423828125,9.015192163795232,2.2224502781353888,0.7530705301433801
1782942001306927000,4.997927001953125,9.15941651033461,2.062359961683303,0.7240828475248068
1782942001316912400,5.007912353515625,9.278240458157658,1.7897062191076576,0.8252226700972766
1782942001326897400,5.0178974609375,9.205719411826133,1.5553271159991622,0.7703272237621247
1782942001336882400,5.02788232421875,9.011486295014619,1.3923225195355713,0.691940500267595
1782942001346867200,5.0378671875,9.135907039931416,1.1572681475140154,0.7783001023374497
1782942001356853200,5.047853271484375,9.213021843793987,0.982665029323846,0.9325065483827143
1782942001366838300,5.05783837890625,9.068979868084192,0.7557507091380655,1.1979467063177376
1782942001376823300,5.0678232421875,8.592727214458584,0.4605069490917027,1.3955062641382217
1782942001386808300,5.077808349609375,7.955144181191921,0.18448475299626588,1.433730780853331
1782942001396793300,5.08779345703125,6.839236948722601,-0.25219372287094594,1.4897830690734088
1782942001406778400,5.0977783203125,4.7099978921175,-1.051767207122594,1.5575719723165034
1782942001416763400,5.107763427734375,1.345344349130988,-2.3836073470361527,1.4012952228032052
1782942001426748200,5.117748046875,-5.2734156189769505,-4.367781660754979,0.5614863204054534
1782942001436733200,5.127733154296875,-16.40733538223505,-7.074906822293997,1.4248068851634859
1782942001446718200,5.13771826171875,-36.46739247678518,-11.621824276232719,5.26381075528562
1782942001456704300,5.147704345703125,-61.67913324608802,-17.4108413934052,7.809792291927337
1782942001466689300,5.157689208984375,-69.89645419950484,-13.364564599895477,2.544497143302858
1782942001476674300,5.16767431640625,-69.40277168765067,7.542551222050189,-10.842377195817232
1782942001486659300,5.177659423828125,-69.61450889697075,15.865266148352623,-16.79797837537527
1782942001496644400,5.187644287109375,-69.29709480617046,9.443469598802924,-13.197974692291021
1782942001506629000,5.197629150390625,-58.44740056533813,6.8091364094913,-8.812812565407157
1782942001516614100,5.2076142578125,-34.2800086897254,4.169223958742618,-5.4428474720090625
1782942001526599400,5.217599365234375,-17.48894403926134,0.3083374887667596,-4.340404701268673
1782942001536585200,5.227585205078125,-6.169343883481622,-1.2443503647699952,-4.897672088804841
1782942001546570200,5.2375703125,1.7314894463300703,-0.5141647433906793,-5.981225450158119
1782942001556555300,5.24755517578125,6.535750260987878,0.5491220750033855,-7.308676999723911
1782942001566540300,5.257540283203125,8.57776170051694,1.3528192150563,-8.217519106337427
1782942001576525300,5.267525390625,9.826239666610956,2.267386421318352,-8.034590058350563
1782942001586510300,5.27751025390625,10.881330903589724,3.31255832182914,-7.609712202653288
1782942001596495400,5.287495361328125,11.651945858252049,4.714066456730664,-7.488060922449827
1782942001606480400,5.29748046875,12.048618779206276,5.847846907281875,-7.962601511460543
1782942001616465400,5.30746533203125,12.775554751139879,6.289369023787975,-8.23892605150342
1782942001626451200,5.317451171875,13.872739747482537,5.864615671253204,-7.67962803492248
1782942001636436200,5.327436279296875,15.039794983386992,5.227378674945235,-6.8554936715185635
1782942001646421200,5.337421142578125,15.625228727221488,5.190306543135643,-6.344186071124673
1782942001656406500,5.347406494140625,15.935199516278505,5.563156105431914,-5.461787734800577
1782942001666391300,5.357391357421875,16.006334661209582,5.7098822056591505,-4.6250054867476225
1782942001676376300,5.367376220703125,15.433250695860385,5.638439602214097,-3.8532512989223
1782942001686361300,5.377361328125,15.264134484648704,5.398645342189074,-3.2166146065950394
1782942001696346400,5.387346435546875,15.415948847925662,5.30584781602621,-2.5348726981282232
1782942001706331400,5.397331298828125,15.356184991836546,4.983378779923916,-1.867426733778417
1782942001716316400,5.40731640625,15.142100342607497,4.325011025042832,-1.2712538615256548
1782942001726302500,5.417302490234375,15.043414342927932,3.9090368990302085,-0.8615041629858314
1782942001736287200,5.427287353515625,14.919772765690087,3.6088606510177255,-0.5994657763183117
1782942001746272300,5.437272216796875,14.649144975984095,3.389987598468363,-0.4354255531966686
1782942001756257300,5.44725732421875,14.175215796869992,3.348707493574917,-0.26275238015577196
1782942001766242600,5.45724267578125,13.544136738669872,3.339908685569465,-0.0014684651173651217
1782942001776227600,5.4672275390625,12.988735729527473,3.2536326701298353,0.3450283661738038
1782942001786212400,5.47721240234375,12.414676781666278,3.242634013992548,0.5838324461176991
1782942001796197400,5.487197265625,11.935892563736438,3.258292186373472,0.7161664483770728
1782942001806182400,5.497182373046875,11.518590696251392,2.944104071882367,1.0447999984584748
1782942001816168200,5.507168212890625,11.219918715322017,2.556483056911826,1.3540282985851169
1782942001826153200,5.5171533203125,10.733589488840103,2.540313427877426,1.4973764468118547
1782942001836138500,5.527138427734375,10.26583402992487,2.6682348743915556,1.4377521453239024
1782942001846123500,5.53712353515625,10.009593662011623,2.688260594332218,1.4334031563341616
1782942001856108500,5.547108642578125,9.66438497083485,2.395289309262484,1.5158093446031211
1782942001866093300,5.55709326171875,9.436792020735144,2.1241500629030168,1.5299103506699203
1782942001876078300,5.567078369140625,9.25740342183411,1.9282712247110902,1.4542860776260493
1782942001886063400,5.5770634765625,9.116240216431022,1.681342144370079,1.325306938752532
1782942001896048400,5.58704833984375,9.067574092939495,1.455972277147323,1.2317800754018127
1782942001906034400,5.597034423828125,9.021710167387127,1.2241048645988106,1.1832340711586176
1782942001916019500,5.60701953125,8.984270371308922,0.9503370963666588,1.161375582832843
1782942001926004500,5.61700439453125,8.993695202258229,0.7836650634367018,1.1391617051981389
1782942001935989500,5.626989501953125,8.987186551016569,0.6520463698398321,1.090371809196472
1782942001945974300,5.636974365234375,8.885909365800023,0.5324329521395266,1.0437691210407762
1782942001955959300,5.646959228515625,8.890794799754023,0.34790764793716367,1.2996401441849768
1782942001965944300,5.6569443359375,8.783235173267126,0.06349573609381914,1.5644932960122824
1782942001975929600,5.6669296875,8.489659054172039,-0.26055837724283337,1.615777785308659
1782942001985914400,5.676914306640625,8.173364322790503,-0.5273335101086646,1.676749409752339
1782942001995899400,5.6868994140625,7.801682635229826,-0.9104081138212233,1.7377350627213715
1782942002005885400,5.696885498046875,7.116584986594319,-1.3373577342912555,1.615993035494536
1782942002015870200,5.7068701171875,5.825309496781229,-1.7852517239168286,1.4031310599282383
1782942002025855200,5.716855224609375,4.308269441339373,-2.3128755222089588,1.2986100704848766
1782942002035840300,5.72684033203125,2.0666431919604538,-3.465091354769468,1.5444427338913083
1782942002045825500,5.736825439453125,-2.4066975691139696,-5.403526099967956,1.7335927022196351
1782942002055810600,5.746810546875,-10.748480768501757,-6.6084478329300875,1.5273676804497838
1782942002065795300,5.75679541015625,-23.344887743759156,-6.671855013957619,0.7079430291067809
1782942002075780400,5.7667802734375,-39.89003702096939,-7.620215476489067,-1.141142065360397
1782942002085765400,5.776765380859375,-55.47002843010425,-8.565111477780341,-4.66610351307243
1782942002095751200,5.786751220703125,-68.04343563804626,-2.5518828696399924,-10.509011502647398
1782942002105736400,5.796736328125,-70.08467024798392,8.922110559993982,-16.504141559517382
1782942002115721500,5.806721435546875,-69.6096877604246,11.111881534451246,-17.241244705200195
1782942002125706500,5.81670654296875,-66.41766515877246,8.13674168831408,-13.075801434040068
1782942002135691500,5.82669140625,-51.87090737507343,7.410256382757425,-8.38253080483973
1782942002145676300,5.83667626953125,-38.29976104892492,5.827193995353579,-5.043982593968511
1782942002155661300,5.846661376953125,-29.30373769598007,2.3588629280105233,-2.9423037444621323
1782942002165646300,5.856646240234375,-22.392869927763936,0.4674960773266852,-2.0859620788060127
1782942002175631400,5.86663134765625,-16.92152058389187,0.6844178496778011,-2.377259147053212
1782942002185617400,5.876617431640625,-11.550925278145074,1.1826853512346744,-3.3274592461019754
1782942002195602400,5.8866025390625,-5.908557688832283,1.7279684325970708,-3.906714301301539
1782942002205587500,5.89658740234375,-1.2366799762725829,2.3438038905665275,-4.028813033011556
1782942002215572500,5.906572509765625,2.909845828449726,2.5157798751235005,-4.310800713382661
1782942002225557200,5.91655712890625,6.6057584477156395,2.737827173794806,-4.528897813123464
1782942002235542300,5.926542236328125,9.528500582617522,3.103726770822704,-4.82907844505012
1782942002245527300,5.93652734375,11.677839008921383,3.6249645213395354,-4.786385258488357
1782942002255512600,5.9465126953125,12.67321782773733,4.287931294448674,-4.731952242033183
1782942002265497300,5.956497314453125,12.994134373700618,5.268014052194356,-4.714048921073973
1782942002275483400,5.9664833984375,13.10259825555086,6.307592078220844,-4.441689485269785
1782942002285468400,5.976468505859375,13.155647124171256,7.2399483314126725,-3.830058639383316
1782942002295453200,5.986453125,13.176816168928145,7.705678421980142,-2.824498910553753
1782942002305438200,5.996438232421875,13.286000181746482,7.540995224779844,-1.856990095438063
1782942002315423500,6.006423583984375,13.408886556702852,7.466777311402558,-1.05749113772735
1782942002325408500,6.016408447265625,13.631506394565104,7.321165894418955,-0.23606139363963155
1782942002335393500,6.0263935546875,13.833062401610611,6.813693342143297,0.5658373186891898
1782942002345378300,6.03637841796875,14.214210421174764,6.278164908206462,1.3226510174162684
1782942002355363300,6.04636328125,14.628275206434726,6.041706514605879,1.955143303415179
1782942002365349400,6.056349365234375,14.923502015346287,5.957266482421756,2.447359542109072
1782942002375334400,6.06633447265625,14.904758736431598,6.071102704960108,2.805163218703866
1782942002385319400,6.0763193359375,14.94626914294958,6.138482881271838,3.057020841488242
1782942002395304400,6.086304443359375,14.989604426807164,6.01773994808495,3.1099966448724268
1782942002405289500,6.09628955078125,15.020491732501982,5.922258297404647,3.141197838822007
1782942002415274500,6.1062744140625,14.885953498196601,5.925622805401683,3.1538027611121535
1782942002425259300,6.11625927734375,14.324461770963667,5.989953531014919,3.012809067057073
1782942002435244300,6.126244384765625,13.88222536870837,6.074874624714255,2.857125461131334
1782942002445229300,6.136229248046875,13.491736689347029,6.134429806488752,2.700520940968394
1782942002455214600,6.146214599609375,13.105336156082153,6.1590662350952625,2.5814564623877403
1782942002465200400,6.156200439453125,12.73222881963253,6.1372372651249165,2.565103001219034
1782942002475185400,6.166185302734375,12.258756736636162,6.120119541585445,2.498788992834091
1782942002485170400,6.17617041015625,11.763142964458465,6.106833943554759,2.501726215329766
1782942002495155500,6.186155517578125,11.283354537922143,6.02922872582674,2.524769237264991
1782942002505140200,6.19614013671875,10.895034434771537,5.949775249883532,2.518944476634264
1782942002515125200,6.206125244140625,10.623216558498143,5.947113921719789,2.351057661087066
1782942002525110500,6.216110595703125,10.30242510021925,5.936791265147924,1.9832116061665117
1782942002535095600,6.226095458984375,9.958373177862168,5.839685228136181,1.818444091683626
1782942002545080300,6.236080322265625,9.829433494216204,5.783273605084419,1.7596067027896642
1782942002555066400,6.24606640625,9.604932664912939,5.759368413361907,1.7889701599180696
1782942002565051400,6.256051513671875,9.397011214488744,5.718968013912439,1.767508854216337
1782942002575036200,6.2660361328125,9.097688076174258,5.835463811048865,1.5635628832943738
1782942002585021400,6.276021484375,8.693816183626652,5.9421893247991795,1.3851735245637595
1782942002595006500,6.28600634765625,8.36997819725871,5.899233980169892,1.4878322272665798
1782942002604991500,6.295991455078125,8.289377889367938,5.883625492149591,1.8686255881741642
1782942002614976500,6.3059765625,8.280667344167828,5.444020022919774,2.24820913490057
1782942002624961300,6.315961181640625,8.01788266917765,3.7685154986619946,2.88320624332726
1782942002634946300,6.3259462890625,8.40506061655581,0.36413083378970623,3.987441158181429
1782942002644931300,6.335931396484375,8.99458893622756,-4.904307581296563,5.553143829983473
1782942002654917400,6.34591748046875,7.00876758595407,-8.896979625868797,5.945783549898863
1782942002664902400,6.35590234375,2.1498528055667876,-9.256288154068589,4.984948221197724
1782942002674887400,6.365887451171875,-2.5916286045730113,-7.780097995409369,3.2045246480897065
1782942002684872400,6.37587255859375,-8.227246135103702,-6.187972011584043,1.3230335869930683
1782942002694857500,6.385857421875,-15.90118735656142,-4.62743417519927,-0.3894266030877828
1782942002704842200,6.39584228515625,-24.13035890676975,-2.9714719712793825,-3.1133678748711944
1782942002714827300,6.4058271484375,-32.540445827054974,0.34667817920744415,-5.896433535796404
1782942002724812300,6.415812255859375,-36.60939388657808,5.722870282047987,-9.221710761684179
1782942002734797600,6.425797607421875,-35.469770262956615,9.992319871127604,-12.818083394789696
1782942002744783400,6.435783447265625,-33.00275120387077,10.50675407910943,-13.847562051606177
1782942002754768400,6.445768310546875,-31.511783162796494,8.94356251334548,-10.81780038844347
1782942002764753400,6.45575341796875,-28.72780593998432,5.923406882917881,-7.280332364249229
1782942002774738400,6.465738525390625,-24.797913299930094,3.699671971799433,-6.456454605954885
1782942002784723200,6.47572314453125,-20.402374155938624,2.9972467562660574,-6.354834890910983
1782942002794708500,6.48570849609375,-15.6634786706388,2.201118444032222,-5.561505415615439
1782942002804693500,6.495693603515625,-11.096846462404727,0.8476384269796311,-4.472816444939375
1782942002814678500,6.505678466796875,-6.91553459098339,-0.5088061389669776,-3.4903573134511707
1782942002824663300,6.515663330078125,-3.5352743135422466,-1.452038006438315,-3.056082683855295
1782942002834649300,6.5256494140625,-0.9411842872917652,-1.8575358927525578,-3.1266707162976264
1782942002844634400,6.53563427734375,1.0283359165221453,-1.9914225312814116,-3.044390492495894
1782942002854619400,6.545619384765625,2.5715274813085793,-2.2473519335493446,-3.031294864079356
1782942002864604400,6.5556044921875,3.580744271340966,-2.3714883085668084,-2.975059182116389
1782942002874589400,6.56558935546875,3.955897434404492,-2.6466753690123554,-2.4529426029384136
1782942002884574500,6.575574462890625,4.177134877997637,-3.04759688732177,-1.9583141885362565
1782942002894559500,6.5855595703125,4.31694783783555,-3.237582575821876,-1.529077699238062
1782942002904544300,6.595544189453125,4.306971802744269,-3.2462805538013577,-1.327885410938412
1782942002914529300,6.605529296875,4.043600267776847,-3.140410780097544,-1.2291923969961702
1782942002924514300,6.615514404296875,3.610424539333582,-3.07980521248728,-0.8552017018407583
1782942002934500400,6.625500244140625,3.0992782669812438,-3.0937568732112646,-0.3263116830050945
1782942002944485400,6.6354853515625,2.832442270773649,-3.078212098076939,0.13117767183110118
1782942002954470400,6.645470458984375,2.8426474384456872,-2.952554504841566,0.3932305254153907
1782942002964455400,6.655455322265625,3.0057226159274575,-2.779209570018947,0.39621392514035103
1782942002974440400,6.6654404296875,3.1711060703516005,-2.643023276245594,0.5023027484223246
1782942002984425200,6.67542529296875,3.1143612698227163,-2.5101854161173103,0.5659425691619515
1782942002994410200,6.68541015625,2.653446470582485,-2.2283694390513,0.6611920915868132
1782942003004395500,6.6953955078125,1.9285902275323867,-1.9325242059804497,0.8532194419823587
1782942003014380500,6.705380615234375,1.2069003395587206,-1.75686383382231,0.9267441123984753
1782942003024366300,6.715366455078125,0.5384972206145525,-1.5597178983040154,1.170980154263228
1782942003034351400,6.725351318359375,0.058387307038903234,-1.2100023972272873,1.5865914383128283
1782942003044336400,6.73533642578125,-0.2922287961393595,-0.8066362622447312,1.5114514416545628
1782942003054321400,6.7453212890625,-0.786034642112255,-0.2996895239414647,1.051750548248738
1782942003064306400,6.755306396484375,-1.1332476588487626,0.13050174533091485,0.41850528845805673
1782942003074291500,6.76529150390625,-1.353518887758255,0.5193477720517665,0.034424923502746965
1782942003084276500,6.7752763671875,-1.7581465671092271,0.9437512151703238,0.10477361249756068
1782942003094261500,6.785261474609375,-1.97229960539937,0.9898738647241144,0.2069613001551479
1782942003104246300,6.795246337890625,-2.572074009275436,1.3897688895300029,0.6047089742014184
1782942003114231300,6.805231201171875,-2.49213304207623,1.3813793929778038,0.977722896746546
1782942003124217300,6.81521728515625,-2.1578449733644725,1.071468079023063,1.2851871098101137
1782942003134202400,6.825202392578125,-2.4781822581350803,1.2802847247213125,1.5819040111489593
1782942003144187400,6.8351875,-2.2530378702312706,1.2852594443939624,1.7178091498933732
1782942003154172400,6.84517236328125,-1.6419301714360712,1.0100042140830308,1.6961927997604012
1782942003164157400,6.855157470703125,-1.0694377422392367,0.8357338349785656,1.6180917613394556
1782942003174142500,6.865142578125,-0.43210722242891786,0.7623016651514917,1.486204479934275
1782942003184127200,6.875127197265625,0.13383330090641973,0.7462979672685265,1.4070204685822127
1782942003194112300,6.8851123046875,0.4933955116063356,0.703028369058296,1.275234309463948
1782942003204097300,6.89509716796875,0.48101533798277374,0.5999912614971399,1.1121370662808419
1782942003214082600,6.90508251953125,0.3901081556111574,0.6433106171332299,1.0465874663971364
1782942003224068400,6.915068359375,0.5724883375436067,0.7873932171143591,0.9926076005369424
1782942003234053400,6.925053466796875,0.37384558759629727,0.8928463728412985,0.9893272636920213
1782942003244038400,6.935038330078125,0.32686931688785553,0.6927326735585928,1.0492815277867018
1782942003254023400,6.9450234375,0.35594811185598374,0.31915055920407176,1.0500574805952607
1782942003264008200,6.95500830078125,0.29636838016211986,0.012514175266772508,0.8393450842782855
1782942003273993500,6.964993408203125,0.30478666441738606,-0.19795988224968314,0.4939473368028178
1782942003283978500,6.974978515625,0.470908369988203,-0.2969441342234611,0.18161486011575906
1782942003293963500,6.984963623046875,0.6502127977371216,-0.2993025339178741,0.029315307137742636
1782942003303948300,6.9949482421875,0.6279109495580196,-0.20497633688300848,-0.028418303499091416
1782942003313934300,7.004934326171875,0.46704701838493345,-0.15906623410135506,0.04045618475731462
1782942003323919400,7.01491943359375,0.32022739465534683,-0.21897373644486068,0.08689175445148721
1782942003333904400,7.024904296875,0.32287177168428893,-0.2658716812200844,0.021038623310253024
1782942003343889400,7.034889404296875,0.38785716181397434,-0.19966507873237133,0.012833141555450856
1782942003353874400,7.04487451171875,0.45665597275197506,-0.058168988113105294,0.0979111976484768
1782942003363859500,7.054859375,0.7853373074978589,0.2173873440362513,0.0930272432655096
1782942003373844500,7.064844482421875,0.9757745391577481,0.5226040704339743,0.09412488404279575
1782942003383829200,7.074829345703125,0.6695294926255941,0.6820664642460644,0.10487931962804868
1782942003393814300,7.084814208984375,0.2870978629916906,0.5671060599833726,0.1465456656264141
1782942003403799300,7.09479931640625,0.2834060227364302,0.32933921413272615,0.17218217465355992
1782942003413785300,7.104785400390625,0.21104922705590723,0.1535036315381527,0.21124924314003438
1782942003423770400,7.114770263671875,0.03611936112940311,0.09679010293036698,0.3639891968293115
1782942003433755400,7.12475537109375,0.02273205628991127,0.18401012122184038,0.49005613805055614
1782942003443740400,7.134740478515625,0.11825403898060322,0.32159049970209597,0.6044670917369425
1782942003453725400,7.144725341796875,0.027076222974061964,0.4155313506811857,0.7522042687028646
1782942003463710200,7.154710205078125,0.031520342901349065,0.3880740194350481,0.8245786000400781
1782942003473695200,7.1646953125,0.263269828158617,0.2634673965573311,0.6848744343388825
1782942003483680500,7.174680419921875,0.3060521543085575,0.21044366237819193,0.5725172713771463
1782942003493665500,7.18466552734375,0.2811158659726381,0.2864657025679946,0.5361972731091081
1782942003503651300,7.1946513671875,0.5013181212991475,0.4481573167368769,0.48545638917014
1782942003513636400,7.20463623046875,0.8457996672451495,0.5845312420368194,0.38070049499236047
1782942003523621400,7.214621337890625,1.1026841782808303,0.6737696144133806,0.21503489915858953
1782942003533606400,7.2246064453125,1.303086923637986,0.68393503459692,0.016483663419634104
1782942003543591400,7.23459130859375,1.2622305971145629,0.6129214702188969,-0.06675842768419533
1782942003553576400,7.244576416015625,0.8418108898699284,0.4784983867257833,0.10175397241543978
1782942003563561500,7.2545615234375,0.45208851870596406,0.3456783545151353,0.5002514784483238
1782942003573546500,7.26454638671875,0.46356092983484265,0.29983342592418194,0.8471474285922944
1782942003583531300,7.27453125,0.5362000495880842,0.4144925091527402,0.982175638371706
1782942003593516300,7.284516357421875,0.6711527099132537,0.6495642707005143,0.900945215883851
1782942003603502300,7.29450244140625,0.8850380371779203,0.8358863221265375,0.7024959426820278
1782942003613487400,7.3044873046875,0.9909943201214074,0.8464091774456203,0.5683349807238206
1782942003623472400,7.314472412109375,1.0195417846918104,0.7165940261393785,0.47004561567902564
1782942003633457400,7.32445751953125,0.9708826754629611,0.5323620788604021,0.33482875145971774
1782942003643442400,7.3344423828125,0.7690256396442652,0.3374721055753529,0.23314415448606013
1782942003653427500,7.344427490234375,0.47173546846210956,0.19416034383624792,0.1985119631744921
1782942003663412200,7.354412109375,0.3061486004203558,0.12203355751931666,0.09142163469977677
1782942003673397200,7.364397216796875,0.37760581691265105,0.04388488056436181,-0.0619657500475645
1782942003683382300,7.37438232421875,0.565900775846839,0.048587797558307645,-0.031314956522360445
1782942003693368300,7.384368408203125,1.5745710379123687,0.16512202700898052,0.4686073995694518
1782942003703353600,7.394353515625,1.0174871902495621,0.3422109706655144,1.4035085149385034
1782942003713338600,7.404338623046875,-0.35754502565860746,0.17992913551852105,1.768516277693212
1782942003723323600,7.41432373046875,-0.17587094616889953,-0.20364961832389233,1.1275078000225127
1782942003733308700,7.42430859375,-0.001454290461540222,-0.3339961000278592,0.3096951869860291
1782942003743293700,7.434293701171875,0.014489713123440742,-0.06037409694194793,0.0040535862397402525
1782942003753278700,7.44427880859375,0.31092005260586736,0.2695401405997574,-0.09702661509998142
1782942003763263700,7.454263671875,0.6709668319523334,0.2879927660048008,-0.17068221841938794
1782942003773248800,7.464248779296875,0.714759796449542,0.09619301382005215,-0.11539119689539075
