time,seconds_elapsed,z,y,x
1782941978370909000,0.077908935546875,0.39204759924113747,-0.07290920539889484,0.780647834507376
1782941978380894000,0.08789404296875,0.392855993014574,-0.21300160323269665,0.7541491922255605
1782941978390879000,0.09787890625,0.371940046235919,-0.6317251010186969,0.8061123845010996
1782941978400864000,0.107864013671875,0.43240240598320956,-0.8850346761770546,1.0644647030670196
1782941978410849000,0.11784912109375,0.2706722133696079,-0.9486356262110173,0.9067625238604843
1782941978420834000,0.127833984375,0.23911855272054672,-1.0331450703695415,0.8312139464013278
1782941978430819000,0.137819091796875,0.2476449735254049,-1.094823162582144,0.8262034247629344
1782941978440804000,0.14780419921875,0.0769891316562891,-1.111768671359867,0.9038818538576364
1782941978450788900,0.157788818359375,-0.193296712744236,-1.0685428392261267,1.0004054148063064
1782941978460774000,0.16777392578125,-0.2719827114462852,-0.9356053181156515,1.0416477449726314
1782941978470759000,0.177759033203125,-0.2966454435378313,-0.7105071805063635,1.016188821002096
1782941978480744000,0.187743896484375,-0.19569734414517878,-0.4761979277636856,0.9675425712548196
1782941978490729200,0.197729248046875,-0.06456570341289043,-0.28993127805301916,0.8590646608792245
1782941978500714000,0.2077138671875,-0.0402764808088541,-0.15989526880402116,0.7954669987808912
1782941978510700000,0.217699951171875,-0.24848902313411234,-0.12012922173533588,0.8935095859903842
1782941978520685000,0.22768505859375,-0.2653402046918869,-0.13463658011332152,1.053756919635087
1782941978530669800,0.237669921875,0.09629530515074729,-0.08196750459074974,1.243842999769747
1782941978540654800,0.24765478515625,0.22162673517167567,-0.0015147154118865728,1.3160655015461147
1782941978550639900,0.257639892578125,0.14266367309391498,0.007532952788099646,1.107371751575172
1782941978560625200,0.267625244140625,0.17541618813872337,-0.040461481986939905,0.8233657171189784
1782941978570610000,0.27760986328125,0.261313433393836,-0.15053407767545432,0.632703809857741
1782941978580595000,0.287594970703125,0.18994857136011123,-0.37603644870407876,0.4953685287123546
1782941978590580000,0.297580078125,0.32740766154825685,-0.6549116230778396,0.4934872450103983
1782941978600565000,0.30756494140625,0.7212135026335715,-0.8563898156467825,0.5947349484041333
1782941978610550000,0.317550048828125,0.8297066105782985,-0.9297017200950533,0.6401557332988828
1782941978620534800,0.32753466796875,0.6798305218875408,-0.9046173285253345,0.5063287160027772
1782941978630519800,0.337519775390625,0.6126473294526338,-0.6829695505656301,0.9444423392396419
1782941978640505000,0.347505126953125,0.38387422965764995,-0.4392219498049468,1.182275893650949
1782941978650490000,0.357489990234375,0.034224341163039206,-0.28836466805711386,1.2250589504532516
1782941978660475100,0.36747509765625,-0.28110534457862374,-0.2288786790613085,1.5150557497568429
1782941978670460000,0.3774599609375,-0.3121960638910532,-0.27928521647937593,1.531067850141972
1782941978680440600,0.387440673828125,0.24639292763769624,-0.16284056500829755,1.1966017214495688
1782941978690425600,0.397425537109375,0.13739654634594917,-0.24401852665655313,0.8949363308578729
1782941978700410600,0.40741064453125,-0.0429518374979496,-0.34308768043480814,0.8110488910552114
1782941978710395600,0.417395751953125,-0.090456515994668,-0.26465719086378814,0.6933133960559964
1782941978720380700,0.427380615234375,-0.4174702097892761,-0.13199183775819837,0.47322000793144103
1782941978730365700,0.43736572265625,-0.6286936243683099,-0.12444960568509995,0.39591472299806774
1782941978740350700,0.447350830078125,-0.531364299994707,-0.30781090760938823,0.38001448548957706
1782941978750335700,0.457335693359375,-0.2822580217450857,-0.5338005141656845,0.3906406550526619
1782941978760320800,0.46732080078125,0.03626023090481758,-0.537446250256896,0.3753641024004668
1782941978770305500,0.477305419921875,0.21078736124932765,-0.4192796703640371,0.3654189008388668
1782941978780290600,0.48729052734375,0.3090536742120981,-0.35627398280948397,0.4496808365097269
1782941978790275600,0.497275634765625,0.2780839509308338,-0.33567345865555104,0.5986672463517636
1782941978800260900,0.5072607421875,0.1145253738462925,-0.34701880933865903,0.6909238705709576
1782941978810245600,0.51724560546875,-0.1306505792170763,-0.4520723712887615,0.6777029352743178
1782941978820230700,0.527230712890625,-0.13850830698013306,-0.5610487327057868,0.5822634067026898
1782941978830216700,0.537216796875,-0.0013064064234495163,-0.5406514029737561,0.4804232903737575
1782941978840201700,0.54720166015625,0.029541736304759977,-0.39992768496647474,0.36941841880381104
1782941978850186500,0.5571865234375,0.018060557347536085,-0.2403654109764844,0.23591197523158042
1782941978860171800,0.567171875,0.15079028092622757,-0.127574313576892,0.043822702048346394
1782941978870156800,0.57715673828125,0.2617646842926741,-0.011350392184406519,-0.14055168590862302
1782941978880141800,0.587141845703125,0.14251345096826554,0.0566615792248398,-0.23290579741923137
1782941978890126600,0.597126708984375,-0.08066811242997646,0.14941438946314156,-0.18983893697317689
1782941978900111600,0.607111572265625,-0.06944120049476624,0.2572785518545657,-0.16354531574416906
1782941978910096600,0.6170966796875,0.093576693841815,0.2829778604522347,-0.28197628219425674
1782941978920081700,0.62708154296875,0.3113929308146238,0.3165106391545385,-0.3840964210409671
1782941978930066700,0.637066650390625,0.3773030345737934,0.48332777964361007,-0.37892241593655196
1782941978940051700,0.6470517578125,0.27837504283189773,0.711662122695148,-0.31787334234248843
1782941978950036700,0.65703662109375,-0.2647884160280228,0.8941418925445527,-0.26590788504462687
1782941978960021800,0.667021728515625,-0.8115192119807004,1.0332968999303878,-0.2972491085194051
1782941978970006800,0.6770068359375,-0.5814128177553415,1.4260307278700173,-0.3723656147042289
1782941978979991600,0.686991455078125,-0.387747856220603,1.83344993763566,-0.855738073739782
1782941978989976600,0.6969765625,0.34780747549831864,1.5330483564347028,-1.5828253637775778
1782941978999961600,0.706961669921875,1.309948626101017,0.7245912354383617,-1.864781041575223
1782941979009946600,0.716946533203125,1.6309844145298003,0.9446583200778812,-0.9443544417604803
1782941979019932000,0.726931884765625,0.7487263634592294,2.036241623955965,0.7083772558055818
1782941979029916700,0.736916748046875,1.8913667045533655,0.7340334559138864,-0.4558033379780128
1782941979039901700,0.746901611328125,0.7284691728502511,0.2878085685443133,-0.49663942543100564
1782941979049886700,0.75688671875,0.62462769010365,0.32414354518577454,0.27580972238853574
1782941979059871700,0.766871826171875,2.0921721854925153,0.3445573876611888,-0.021481910098344086
1782941979069856800,0.776856689453125,2.303993565964699,0.33113881090059877,0.12722688837870955
1782941979079841500,0.786841552734375,2.5160475861489773,0.15015285980552434,0.4081978659879416
1782941979089826600,0.79682666015625,2.318935699030757,-0.16540515479929743,0.572403874130547
1782941979099811800,0.806811767578125,2.495521515470743,-0.49704870035164056,0.5659525790993124
1782941979109796900,0.816796875,3.114526689517498,-0.6620181671474129,0.5774530472788959
1782941979119781600,0.82678173828125,3.711869482332468,-0.6405027931708842,0.8093991510868072
1782941979129766700,0.8367666015625,3.8288188684552904,-0.9189257667977362,0.8718185631860047
1782941979139752700,0.846752685546875,3.1369723300814627,-1.2123543671809136,0.6430284391909837
1782941979149737500,0.856737548828125,3.048003422296047,-1.0645342611718922,0.7708852229710668
1782941979159722800,0.86672265625,3.5840035653978584,-1.0200148090310395,0.8019042652867734
1782941979169707800,0.876707763671875,3.8175843577355146,-1.0779046879418193,0.5395494330812245
1782941979179692800,0.88669287109375,3.8337615855544804,-1.2344783745750785,0.22325623606964945
1782941979189677800,0.896677734375,4.081189701458811,-1.4272262212648987,0.09055482526998966
1782941979199662600,0.90666259765625,4.0371389628082515,-1.4160434407323599,0.046423605261743064
1782941979209647600,0.916647705078125,3.7415795609414575,-1.3462281462281942,0.06406133408732712
1782941979219632600,0.926632568359375,3.528932835561037,-1.3368984462164342,0.1305233178419061
1782941979229617700,0.93661767578125,3.436480177313089,-1.3515731605179606,0.2634862291219644
1782941979239602700,0.946602783203125,3.3269530501455065,-1.3529538012214004,0.47122803039662536
1782941979249587700,0.956587646484375,3.292091580122709,-1.340105571694672,0.6307653891410678
1782941979259572700,0.96657275390625,3.2487633105278015,-1.3179567221201955,0.7077806781519204
1782941979269557800,0.976557861328125,3.1216759767502547,-1.3254086455613374,0.7825978725966065
1782941979279542800,0.986542724609375,3.0183319221317766,-1.3507457697831093,0.8943845421940088
1782941979289527600,0.996527587890625,2.892396680998802,-1.2995343457229436,0.9825476134892552
1782941979299512600,1.0065126953125,2.7027023766607043,-1.1258508265957237,0.8769860289517789
1782941979309497600,1.01649755859375,2.2728204290658236,-0.8990304683037101,0.7597359063167125
1782941979319483000,1.02648291015625,1.6999650117754934,-0.7273699794366956,0.7503147286292166
1782941979329467600,1.036467529296875,0.9253589416503906,-0.5552518829952925,0.6229043003771454
1782941979339452700,1.04645263671875,-0.371755337318778,-0.14255330805461852,0.23734463838320224
1782941979349437700,1.056437744140625,-1.7838117542415857,0.26131558881830425,-0.2683283536572009
1782941979359422700,1.066422607421875,-3.045991497951746,0.3158016871675849,-0.732605103611201
1782941979369407700,1.07640771484375,-4.710923190268874,0.28982268484570084,-0.9713008278097957
1782941979379392500,1.086392578125,-6.616671471396089,0.1784771831445396,-0.6915638489749282
1782941979389377500,1.09637744140625,-9.273921425914764,0.2786624814711511,0.07897453331984579
1782941979399362800,1.10636279296875,-13.142179739832878,0.7579281993076205,1.167565012057498
1782941979409347800,1.116347900390625,-17.64808363085985,1.1759945483591407,1.68541538515836
1782941979419332900,1.126332763671875,-21.266984906637667,1.2552465834461153,1.3864245475381611
1782941979429317600,1.136317626953125,-24.425420880508423,1.5723301271177827,1.0714026125714182
1782941979439302700,1.146302734375,-27.048937492251394,2.057317291340977,0.9683107791483402
1782941979449288700,1.156288818359375,-28.249610920119284,2.166221610435098,1.1384920623082666
1782941979459273500,1.1662734375,-28.63535795791149,2.3831590187467633,1.2855131268940865
1782941979469258800,1.1762587890625,-27.94629315921068,2.7683707806184885,0.7458589182641356
1782941979479243800,1.186243896484375,-25.66354111871719,3.1829502374023195,-0.5084218158245086
1782941979489228800,1.196228759765625,-22.243325847506522,3.804371532680094,-1.9045336446404455
1782941979499213600,1.206213623046875,-18.407623064756393,4.134559472596645,-2.586697577911615
1782941979509198600,1.216198486328125,-14.794690926516056,3.8812300236940382,-2.2923719556234774
1782941979519183600,1.22618359375,-11.30654252128601,3.1370635154962536,-1.1920249150533229
1782941979529168600,1.236168701171875,-8.267078379276395,2.0936014876432716,0.3677270681833848
1782941979539153700,1.246153564453125,-6.242688521155714,1.056665938949585,2.022483732238412
1782941979549138700,1.256138671875,-5.040555542129278,0.030003070206195113,3.2008962284594773
1782941979559123700,1.266123779296875,-4.199796791660785,-0.8123071474879979,3.6538781888738274
1782941979569108700,1.276108642578125,-2.793762119245529,-1.2208967162072657,3.3484476735949515
1782941979579093800,1.28609375,-0.7189829671025276,-1.3975911075882612,2.6931086188852786
1782941979589078800,1.296078857421875,1.5131635062694548,-1.4742583138138055,2.3219103309273716
1782941979599063600,1.3060634765625,3.62368792553246,-1.5300041664332151,2.226182450401038
1782941979609048600,1.316048583984375,5.5829433404415845,-1.5550021218284964,2.0493768537305295
1782941979619033600,1.32603369140625,7.274797526475787,-1.5462030215620994,1.7141732776090501
1782941979629019000,1.336018798828125,8.509395435777305,-1.4422534022659061,1.4094102863281965
1782941979639003600,1.346003662109375,9.207095960876345,-1.2579288082674145,1.2310776262208818
1782941979648988700,1.35598876953125,9.521948092234133,-0.9791402161985635,1.1859539245765656
1782941979658973700,1.3659736328125,9.499054707902669,-0.660230260817334,1.13868385855332
1782941979668958700,1.375958740234375,9.231587428054214,-0.5901590187907219,1.1404614626850933
1782941979678943700,1.38594384765625,9.105512486189603,-0.7468066474430263,1.3477280293971299
1782941979688928500,1.395928466796875,9.019644467028975,-1.0328286978967487,1.437548293314874
1782941979698913500,1.40591357421875,9.302420375168323,-1.296679833074659,1.4573676770284771
1782941979708898600,1.415898681640625,9.652783964890242,-1.4465847094684838,1.5403873210206627
1782941979718884400,1.42588427734375,9.810949743020535,-1.4368692250095307,1.6007921053618193
1782941979728869600,1.43586962890625,9.950433032512665,-1.3413788065008818,1.5874366569653153
1782941979738854700,1.445854736328125,9.948310049009322,-1.1498172469861805,1.4606044669926166
1782941979748839700,1.455839599609375,10.151071340191363,-1.0107808975439518,1.2595514410331845
1782941979758824700,1.46582470703125,10.285520727169514,-0.8843575075678527,1.092043614866212
1782941979768809500,1.4758095703125,10.098270308852195,-0.7159505406040698,1.216642273633182
1782941979778794500,1.48579443359375,9.848601136022806,-0.46955432503074407,1.558084013491869
1782941979788779500,1.495779541015625,9.633234045767784,-0.23790640045180916,1.734647618100047
1782941979798764500,1.5057646484375,9.597480595341324,-0.08217632503584027,1.7852007243819534
1782941979808749600,1.51574951171875,9.77774013185799,0.07513093656897545,1.8942413832068443
1782941979818734600,1.525734619140625,9.942873995435237,0.2588914669439196,1.8884692295461891
1782941979828719600,1.5357197265625,9.873609320551157,0.43135888827964664,1.760101208308339
1782941979838704600,1.54570458984375,9.842945302218197,0.5472738167881965,1.6757205050960182
1782941979848689700,1.555689697265625,9.696546534249187,0.6328238560408354,1.27404626872316
1782941979858674400,1.56567431640625,9.483122394755481,0.6933791547685861,0.7154813156571239
1782941979868659500,1.575659423828125,9.446840536540746,0.805213535965234,0.052247233381308614
1782941979878644500,1.58564453125,9.409148227006197,1.0480389803797006,-0.3779376061502844
1782941979888629800,1.595629638671875,9.336917688053846,1.2557263297870755,-0.6878899097025394
1782941979898614500,1.605614501953125,9.268757175019383,1.363693514161557,-0.9402925260838121
1782941979908599600,1.615599609375,9.175691937831044,1.4222959252558647,-1.1802809204414486
1782941979918584600,1.62558447265625,9.089076315173505,1.4794104358799756,-1.387273857843876
1782941979928569600,1.635569580078125,9.00070303519368,1.63135792401731,-1.4743306483976542
1782941979938554600,1.6455546875,8.764609967774152,1.7900597087204455,-1.3545964538618922
1782941979948539400,1.655539306640625,8.282056752699614,1.8864111279726028,-1.0214043636932968
1782941979958524400,1.6655244140625,7.911081752103566,1.856266749599576,-0.5941077564164996
1782941979968509700,1.675509765625,7.833765872710943,1.6814216393470762,-0.3081739687681198
1782941979978494700,1.68549462890625,7.990177500650287,1.5661273269549012,-0.06852364725843071
1782941979988479500,1.6954794921875,8.034432237440347,1.6324503954291343,0.273410844553262
1782941979998464500,1.705464599609375,8.240504845127463,1.846203036224842,-0.03949351373761892
1782941980008450600,1.715450439453125,6.589540887886286,2.3114070570915937,-0.34407413418889043
1782941980018435600,1.725435546875,5.089456643420458,2.5969465847253796,-0.7603478276699781
1782941980028420600,1.735420654296875,4.3445133056312795,2.7435084343016145,-1.285657065409422
1782941980038405600,1.745405517578125,2.699586874988675,3.1364070974141356,-1.066446232273057
1782941980048390700,1.755390625,2.177588953754306,3.328966143533587,-0.965687883298844
1782941980058375700,1.765375732421875,2.1531804886847734,2.927887681096792,-0.8915743801441043
1782941980068360400,1.7753603515625,2.335299389332533,1.6307938603937624,-0.7411343008950352
1782941980078345500,1.785345458984375,2.2838111941576003,0.11741744202598929,-0.18896745136827228
1782941980088330500,1.79533056640625,0.664311465716362,-0.1853138972967863,1.3462567878007887
1782941980098315500,1.8053154296875,-1.5375439142882823,0.4197764409050345,2.8181197309106585
1782941980108300800,1.81530078125,-3.0994840186864137,-0.007829086190462112,3.986303386323154
1782941980118285600,1.82528564453125,-3.9479637187957763,-1.8605510027900336,4.503097016912698
1782941980128270600,1.8352705078125,-3.9128836375862357,-3.6807360929220914,3.308477774517238
1782941980138255600,1.845255615234375,-3.1670126635581255,-3.899089797772467,1.7587629454419016
1782941980148240600,1.85524072265625,-2.721575419434905,-2.3844890983067453,0.5119333310768008
1782941980158225700,1.8652255859375,-3.2403537941008804,-0.43021322537586093,-0.4902805944561958
1782941980168210400,1.87521044921875,-4.813661680209637,1.2054599314920604,-0.677566084086895
1782941980178195500,1.885195556640625,-6.26817426006794,2.5508286844119428,0.2548588504269719
1782941980188180700,1.8951806640625,-7.897130383640527,2.7743931096479293,1.4486431033030152
1782941980198165800,1.905165771484375,-9.157691586238146,1.549894569556415,2.212805520825088
1782941980208150500,1.915150634765625,-9.50949952954948,-0.030346842142567037,2.648768834160268
1782941980218135600,1.925135498046875,-9.305404943937063,-1.4316972291991115,2.468177581471205
1782941980228120600,1.93512060546875,-8.821722432571649,-2.4689444741904736,2.0945313158392906
1782941980238105600,1.945105712890625,-8.471132048356532,-2.8744723172515627,1.52840053062886
1782941980248090600,1.955090576171875,-9.224154063183068,-2.3161519135311246,0.873085733577609
1782941980258075400,1.965075439453125,-11.078708748167752,-1.0887436965379864,0.3904764044016599
1782941980268061700,1.975061767578125,-14.008086960083245,0.18283384398408234,0.69455608959347
1782941980278046700,1.985046630859375,-17.694892143785953,0.6156400084625929,1.058164945335686
1782941980288031500,1.995031494140625,-21.39117476540804,0.5612145907919853,0.9236128286354244
1782941980298016500,2.0050166015625,-24.45904959386587,0.4200364070154726,1.0859694825842976
1782941980308001500,2.01500146484375,-26.3562276150465,0.41692105147391556,1.342561002022773
1782941980317986600,2.024986572265625,-27.16791575385332,0.6731736212816088,1.8019474226519465
1782941980327971600,2.0349716796875,-27.779720787262914,1.4950114712461828,2.506367026872933
1782941980337956600,2.04495654296875,-27.934324488997458,2.164757236970961,2.6869486349508165
1782941980347941600,2.054941650390625,-27.021425215947627,2.4043840314745903,2.2610320838555693
1782941980357926700,2.0649267578125,-24.82441786049604,2.570746560063958,1.7216745931498705
1782941980367911700,2.07491162109375,-21.328850703442097,2.3490593268767,1.4667460384875535
1782941980377896400,2.084896484375,-17.349989157557488,1.6029026677750051,1.2555281768664717
1782941980387881500,2.094881591796875,-13.318424780011176,0.6104210682379081,0.8642498084321617
1782941980397866500,2.104866455078125,-9.659212536633014,-0.11285744063407183,0.4599394879346713
1782941980407851500,2.1148515625,-6.4586179214686155,-0.31341037158425894,0.23148089744895695
1782941980417836500,2.12483642578125,-3.959696826687455,-0.41154450953472405,0.26788294797725976
1782941980427821600,2.134821533203125,-2.0294237606346606,-0.6567263443496077,0.47177514288537203
1782941980437806600,2.144806640625,-0.22718612286448478,-0.9283031784087419,0.7088957997869699
1782941980447791600,2.15479150390625,1.6264058545678852,-1.1424509560018776,0.8212745900586247
1782941980457776600,2.164776611328125,3.4908033036530015,-1.1112033656273037,1.0678316222168505
1782941980467761400,2.174761474609375,5.246290296164155,-0.8935769521381706,1.320461544547975
1782941980477746400,2.184746337890625,6.574827302879095,-0.7119509495738894,1.700258734025061
1782941980487731500,2.1947314453125,7.62377053862214,-0.40699850013554095,2.2040227871716023
1782941980497717500,2.204717529296875,8.25182937221825,-0.10112915504798292,2.7204759337604045
1782941980507702500,2.21470263671875,8.555959034031629,0.23990963003300128,3.1304584181427955
1782941980517687600,2.2246875,8.808936016234755,0.484349450841546,3.2513863525077698
1782941980527672600,2.234672607421875,9.150256467801333,0.5298833407219499,2.953533579006791
1782941980537657600,2.24465771484375,9.067146222916245,0.4971617322720587,2.704745280665159
1782941980547642400,2.254642333984375,9.08209478572309,0.3177839470259845,2.7048598469555376
1782941980557627600,2.264627685546875,9.510178743985295,0.0529370788089931,2.558398535144329
1782941980567612700,2.27461279296875,10.066111083525419,0.02237272145822644,2.412633388903737
1782941980577597700,2.28459765625,10.49912606844902,0.15568170622959732,2.3898760520420965
1782941980587582500,2.29458251953125,10.818845513582229,0.2828380135901272,2.2809264325015244
1782941980597567500,2.3045673828125,10.731335572433471,0.45712008313238617,1.9207967971771955
1782941980607552500,2.314552490234375,10.732508123344182,0.44428573600053783,1.9163247663296759
1782941980617537500,2.32453759765625,10.379069948482513,0.7616925202772021,0.841628153714165
1782941980627522600,2.3345224609375,9.814473240971564,1.1706339711740612,-0.1351149016821757
1782941980637507600,2.344507568359375,9.569951367902755,1.3474787308111786,-0.599045870405808
1782941980647492600,2.35449267578125,9.279974734604359,1.4747335301101208,-0.7905122989829629
1782941980657477600,2.3644775390625,8.794292573854326,1.469922184305638,-0.9465960832074284
1782941980667462700,2.374462646484375,8.63227304290533,1.0038004640720783,-1.3101660682439804
1782941980677448400,2.384448486328125,8.807796198549866,0.6404828463613986,-1.7369316373839974
1782941980687433500,2.39443359375,8.955327769941091,0.7436230489708483,-2.0294442189007995
1782941980697418500,2.40441845703125,9.130225487163662,1.1828507709294558,-2.1194120745956897
1782941980707403500,2.414403564453125,9.209486070883274,1.621393287102878,-2.0751701972872016
1782941980717388300,2.42438818359375,8.967159662032127,1.8777318546935915,-2.0606813609465955
1782941980727374600,2.43437451171875,8.445752692428231,1.9283780460864304,-2.1820424260318276
1782941980737359600,2.444359619140625,7.92776751396656,1.8747806036725638,-2.462604165253043
1782941980747344400,2.454344482421875,7.582104649281502,1.9172060792088508,-2.705944135060906
1782941980757329400,2.464329345703125,7.493232187607884,2.019622497588396,-2.692977685981989
1782941980767314400,2.474314453125,7.479836699461936,2.0991545917257666,-2.558577691103518
1782941980777299500,2.484299560546875,7.555200275743007,2.0388567748904225,-2.4426032874926924
1782941980787284500,2.494284423828125,7.285778354695439,1.9208119947463274,-2.115342048677802
1782941980797269200,2.504269287109375,6.908404592972993,2.016144592344761,-1.5934788597390055
1782941980807254500,2.514254638671875,6.751420133581757,2.1544833879768848,-1.2062176179915667
1782941980817239600,2.524239501953125,6.453049765947461,2.1708640294134613,-1.0390180540561675
1782941980827224600,2.534224609375,5.892662785086036,2.2647724394276736,-0.9345435341030359
1782941980837209300,2.544209228515625,5.270923217639327,2.479465868204832,-0.6920465909905731
1782941980847194400,2.5541943359375,3.864531402349472,2.8582845680385827,0.09069339349046349
1782941980857179400,2.564179443359375,4.059342026787996,3.3569334701284763,1.3778520956344902
1782941980867164400,2.574164306640625,3.7937779502123594,4.164229511456191,-0.3700850660189986
1782941980877149400,2.5841494140625,1.9703443796783684,4.2518084261879325,-1.5181052004553377
1782941980887134500,2.594134521484375,2.9828777469128367,4.180827595035732,-1.3790811990380287
1782941980897119500,2.604119384765625,2.849701448610425,3.938985754831135,-1.936967010733485
1782941980907104500,2.6141044921875,2.4600386986792087,2.266459954123199,-2.704254282277822
1782941980917089500,2.624089599609375,2.5739164222717283,0.1734992486014962,-3.1162749944895505
1782941980927074600,2.634074462890625,1.979455906894803,-0.44893385406732556,-2.1759340261541307
1782941980937059300,2.644059326171875,0.6445996340304613,0.5400768910214304,0.10092968695312737
1782941980947045400,2.65404541015625,-0.6204302384138107,1.1986296470806002,2.5473160001158712
1782941980957030700,2.66403076171875,-1.900985596770048,0.5328749968186021,4.906900520399213
1782941980967015400,2.674015380859375,-3.1813287736803293,-1.0194891777217387,6.715069301784038
1782941980977000400,2.68400048828125,-4.122513060972095,-2.232372683343291,7.324801620572805
1782941980986985500,2.6939853515625,-4.673746429041028,-1.9709210105225443,6.916444107043743
1782941980996970500,2.703970458984375,-5.111251126599312,-0.19492416781559585,5.451988809841871
1782941981006955300,2.713955322265625,-6.14787965517044,1.9314722127094863,3.4468057564944026
1782941981016940300,2.723940185546875,-7.184744915106892,3.5024057709023353,1.263449909776449
1782941981026925300,2.73392529296875,-7.642535444846749,4.3239875272139905,-0.7506973712712526
1782941981036910600,2.74391064453125,-7.450172213560342,4.164296439212561,-1.7885142328441141
1782941981046895600,2.7538955078125,-6.466699521115422,3.333556393933296,-1.3917621091738341
1782941981056880400,2.76388037109375,-5.049389421448112,1.9362366506323216,-0.3884259016126394
1782941981066865400,2.773865478515625,-3.41637437787354,0.10225589405559003,0.6335211906552315
1782941981076850400,2.783850341796875,-1.6906284436315298,-1.4274509699314832,1.705615000361204
1782941981086835500,2.79383544921875,-0.5301648610770702,-1.8873041312895713,2.0320666763588786
1782941981096820500,2.803820556640625,-0.558128972801566,-1.1536240919232368,2.165091583491862
1782941981106805200,2.81380517578125,-1.3477338746160268,-0.23040199790475888,2.2403449773967266
1782941981116790500,2.82379052734375,-2.032871855261922,0.20773747215941546,2.2579320720136162
1782941981126775600,2.833775634765625,-3.389900212445855,0.31830329472497104,2.3836519168302415
1782941981136760600,2.843760498046875,-5.1177024946957825,0.523447900846973,2.3916753565490243
1782941981146745300,2.853745361328125,-4.652639343604445,0.4267475950919091,0.16087065317481755
1782941981156731400,2.8637314453125,-5.184375984042883,0.2547353701777756,-1.8270774799942968
1782941981166716400,2.87371630859375,-5.032148363789916,-0.4671590273920446,-2.6804662871941924
1782941981176701400,2.883701416015625,-4.121166907060146,-1.3167992226481438,-2.4663056501194833
1782941981186686500,2.8936865234375,-2.8959955822736023,-1.834189503956586,-1.2271703896492718
1782941981196671500,2.90367138671875,-1.7572230225235224,-1.9467637437351046,0.06292085881531238
1782941981206656500,2.913656494140625,-1.40457336769104,-2.0007418560296295,1.2725880327388643
1782941981216641500,2.9236416015625,-1.9015952531009912,-2.159699076798558,2.347803481596708
1782941981226626300,2.933626220703125,-2.5021470710903406,-2.504642102776468,2.975927197122574
1782941981236611300,2.943611328125,-2.561186704558134,-3.013416677561402,2.779699983884394
1782941981246596400,2.953596435546875,-2.7568618368715048,-3.2970217300012705,2.029268570072949
1782941981256581600,2.96358154296875,-2.9314643705397843,-2.9988544837236404,1.3646072680056094
1782941981266566400,2.97356640625,-3.0855086848258972,-2.2956962777405976,0.6516153580114245
1782941981276551400,2.983551513671875,-3.5294226649045943,-1.3295600661523639,-0.29760201361030336
1782941981286536400,2.993536376953125,-4.076598866537213,-0.6795937905222177,-1.3117153435125946
1782941981296521500,3.003521484375,-5.289158547031879,-0.2428388884179294,-1.635250255280733
1782941981306506500,3.013506591796875,-7.148464810457825,0.1828444384433329,-0.6585822744145989
1782941981316491300,3.0234912109375,-8.697111133518815,0.3470951625104993,0.751311996038258
1782941981326476300,3.033476318359375,-9.798924958705902,-0.07882080406285821,1.598614176800847
1782941981336461600,3.043461669921875,-10.9517634532094,-0.44070327440388496,2.1401564641997215
1782941981346446600,3.053446533203125,-12.70343059517145,0.01644420819208026,1.989944567683339
1782941981356432400,3.063432373046875,-13.955630796658992,0.5245258322767913,1.6761358078986406
1782941981366417400,3.07341748046875,-15.132497817003726,1.192140358126536,1.640184789073467
1782941981376402400,3.08340234375,-17.497586779922244,2.3653626652933655,1.9314312961772082
1782941981386387500,3.093387451171875,-20.213615671145917,3.1907451290622353,2.371005931877345
1782941981396372500,3.10337255859375,-21.88065573391914,3.3626427876859903,2.751937239950895
1782941981406357500,3.113357421875,-22.277882781624793,3.3684204943045972,2.704909531316161
1782941981416342500,3.123342529296875,-20.821139666235446,3.552610356007516,2.317536061365902
1782941981426327600,3.13332763671875,-18.468273056030274,3.7322450386241077,1.7139289474591612
1782941981436312300,3.143312255859375,-15.89128789383769,3.4010704257577657,1.3292480775937436
1782941981446297300,3.15329736328125,-13.627068704378605,2.6265333292156456,1.335292326194048
1782941981456282400,3.163282470703125,-11.499549311172961,1.6507814402811227,1.5015831047214567
1782941981466267400,3.173267333984375,-9.324588952356576,0.6672939155932516,1.7302262945264577
1782941981476252700,3.183252685546875,-6.994120636442303,0.037241095168329776,2.1711101131290196
1782941981486237400,3.193237548828125,-4.268684449926019,-0.6286025850839912,2.3095039999492464
1782941981496222500,3.203222412109375,-1.607549178406596,-1.4972902298331259,2.1196470523953437
1782941981506207500,3.21320751953125,0.5788654713600874,-1.8500638033062218,1.9508701561406254
1782941981516192500,3.223192626953125,2.29114051413238,-1.4710815834738313,1.8995602401420473
1782941981526177300,3.23317724609375,3.4725586219102142,-0.8236756598509848,1.863720134345442
1782941981536162300,3.243162353515625,4.221754356446862,-0.3380378496993333,2.101430719964206
1782941981546147300,3.253147216796875,4.815180268079042,0.12847761909216643,2.9132056602716445
1782941981556133600,3.263133544921875,5.404323387825489,0.7105144139647483,3.5179818179577587
1782941981566118400,3.273118408203125,6.016803544017672,0.9303796924218535,3.6039661569744346
1782941981576103400,3.283103515625,6.764027101698518,0.9093869540799409,3.2686683266982435
1782941981586088400,3.29308837890625,7.541900064665079,0.8623001356691121,2.7962209105744957
1782941981596073500,3.303073486328125,8.22958246909678,0.7951347711518406,2.3190485117554664
1782941981606058200,3.313058349609375,8.496878484031557,0.705075218585506,1.732839253503829
1782941981616043300,3.323043212890625,8.920199173414707,0.7816347997181117,1.4117507119745016
1782941981626028500,3.333028564453125,9.216491565731168,0.9065439126737416,1.3038158224344252
1782941981636013600,3.343013671875,9.179244077354669,0.895203895752877,0.7547438701830804
1782941981645998600,3.35299853515625,9.17916575142145,0.6815548614621162,0.5512376789178699
1782941981655983400,3.3629833984375,9.020860272559522,0.4388543586015701,0.5924437687270343
1782941981665968400,3.372968505859375,8.889344016423822,0.505472610630095,0.31240119454171505
1782941981675953700,3.38295361328125,9.222012374979258,0.526386803843081,0.5340532102851197
1782941981685938700,3.392938720703125,9.471187626811862,0.5980950724869967,0.464966741512157
1782941981695923500,3.40292333984375,9.60504021694064,0.8021066559910773,0.0374742098044604
1782941981705908500,3.412908447265625,9.715219086015225,1.1212068001821636,-0.17836762182284147
1782941981715893500,3.4228935546875,9.615911739566922,1.51911730010733,-0.22425894683878866
1782941981725878500,3.43287841796875,9.549562075346708,2.1391898111246523,-0.06646430357582866
1782941981735863800,3.44286376953125,9.287975670230388,2.718542335349321,0.050302054130285975
1782941981745849600,3.452849609375,9.061811876150966,3.0059540865957737,0.16082104187943042
1782941981755834600,3.462834716796875,8.765291520297527,3.1328532043248414,0.32253147034663704
1782941981765819600,3.472819580078125,8.487315705916284,3.1008135137245056,0.41513212223052975
1782941981775804400,3.482804443359375,8.442706164339183,2.9849858251079917,0.3920559286780655
1782941981785789400,3.49278955078125,8.663630304199456,2.967767271542549,0.35524303232654925
1782941981795774500,3.5027744140625,8.960384468808769,3.0436446425646544,0.30278500573877243
1782941981805759700,3.512759765625,9.130867876720428,3.2400942663818597,0.00902437865594402
1782941981815744500,3.52274462890625,9.20518457429707,3.536644140590727,-0.44034741017092016
1782941981825729500,3.5327294921875,8.854857224932312,3.8662437592253087,-0.7468892842251807
1782941981835714600,3.542714599609375,8.550254684910177,4.169093902622163,-0.8952773263152688
1782941981845699600,3.552699462890625,8.377236205562948,4.635174706323444,-0.8307830807033926
1782941981855684600,3.5626845703125,8.277982050606608,4.979387664461136,-0.6653154551271349
1782941981865669400,3.57266943359375,8.235738653638958,5.033793792909384,-0.6169457572989165
1782941981875654400,3.582654296875,8.109335794994234,4.9658781945467,-0.7697929707549512
1782941981885639700,3.5926396484375,7.825185675892233,5.070312382489442,-1.1867197943825274
1782941981895624700,3.602624755859375,7.306535896041989,5.0004748761534685,-1.6594989997439085
1782941981905609700,3.612609619140625,7.229222354736923,4.641620521461963,-1.5906415904864668
1782941981915594500,3.622594482421875,7.65129859701693,4.722570081181824,-0.8153912311084568
1782941981925580500,3.63258056640625,7.683634932476282,4.8321752420216795,0.03418758934922516
1782941981935565600,3.642565673828125,7.480739785781502,4.34467083428055,0.43486097811646757
1782941981945550600,3.652550537109375,7.172658171471953,3.7599332560166716,0.311287278483063
1782941981955535600,3.66253564453125,7.033809088230132,4.171299888233841,-0.04003507326841354
1782941981965520600,3.672520751953125,7.27094961887598,4.86348632608652,-0.7335131583668291
1782941981975505700,3.682505615234375,7.443651871880888,4.536533130307495,-1.7093641237616537
1782941981985490700,3.69249072265625,7.155875963497161,3.1891587366536256,-2.5125197042837737
1782941981995475500,3.702475341796875,6.428878032243252,1.4716229968741534,-3.0203949921414255
1782941982005460500,3.71246044921875,5.360774753478169,0.36338439933657646,-2.956714547130465
1782941982015445500,3.722445556640625,4.200480682271719,0.4117860266730189,-2.31376384935081
1782941982025430800,3.7324306640625,3.187610630428791,0.4949117613881826,-1.6157333616450429
1782941982035415600,3.74241552734375,1.9350187992751597,-0.00663578475266695,-0.790437845507264
1782941982045400600,3.752400634765625,0.6932745253503322,-0.6514554912745952,0.0632248101979494
1782941982055385600,3.762385498046875,-0.45710488556325435,-1.3723638734817505,1.184071837157011
1782941982065370600,3.77237060546875,-1.8226082256257532,-1.647479037734866,2.6963670361593364
1782941982075355600,3.782355712890625,-2.657684254282713,-1.015844683739543,4.185555500340461
1782941982085340400,3.79234033203125,-3.063312050586939,0.3266282016083598,4.516516762717068
1782941982095325400,3.802325439453125,-3.483236083269119,2.5373744518160817,4.043143463920057
1782941982105311700,3.812311767578125,-3.687392628201842,4.177290653081238,2.189224154229462
1782941982115296500,3.822296630859375,-3.7789188192546366,4.784171089570224,-0.6281316065713762
1782941982125281500,3.832281494140625,-3.848699042445421,4.533598830421269,-2.760382704474032
1782941982135266600,3.8422666015625,-3.4497827264785763,3.428953288939595,-3.179462103025615
1782941982145251600,3.85225146484375,-2.7620021223694082,1.9574777377121149,-1.9102651740297674
1782941982155236600,3.862236572265625,-3.298872618564963,0.5403553426366299,0.07052548860013484
1782941982165221400,3.872221435546875,-4.299746527665853,-1.4263631746947765,2.6573902397722002
1782941982175206700,3.88220654296875,-4.71421287946403,-3.497517998860776,4.256373834407329
1782941982185191700,3.892191650390625,-5.437440644529461,-4.599145069304108,5.034107096642256
1782941982195176700,3.9021767578125,-7.426471019977331,-3.8711791698008775,5.927068328034878
1782941982205161500,3.912161376953125,-9.854929170000553,-2.4173668471664187,6.025525195133686
1782941982215146500,3.922146484375,-12.418266915112733,-1.1646249400176107,5.019605108559131
1782941982225131500,3.932131591796875,-14.969493366670608,-0.1818865897292271,3.9685742528870698
1782941982235116500,3.942116455078125,-16.658412083774802,0.29741478394251314,3.6877401264652607
1782941982245101600,3.9521015625,-17.229627917164564,0.7423163502864539,4.59735117162466
1782941982255086600,3.962086669921875,-17.228968576472997,1.1626342045918105,5.793026937335729
1782941982265071600,3.972071533203125,-18.140791160202024,1.3335991124100983,6.646001026254892
1782941982275057700,3.9820576171875,-20.16087776817083,0.9951084774419665,7.389943078047037
1782941982285042400,3.99204248046875,-21.339311307179926,-0.007471285728737711,7.664180874943733
1782941982295027500,4.00202734375,-21.674331197297573,-0.7326266578558832,7.85322226833105
1782941982305012500,4.012012451171875,-21.678722125732897,-0.4497130217462778,7.821243075746297
1782941982314997800,4.021997802734375,-21.269297275233267,0.6248230665452777,6.7023617959022515
1782941982324982500,4.031982421875,-20.277382333135602,2.017718855924159,4.696099715146422
1782941982334967600,4.041967529296875,-18.919430431365967,3.125024702656269,2.0631214475750923
1782941982344952600,4.05195263671875,-16.67390308289528,3.349146469514072,-0.3223115074530244
1782941982354937600,4.0619375,-14.073791896659134,3.1916432469457385,-1.413911689400673
1782941982364922600,4.071922607421875,-11.43972349576354,2.596568983584642,-0.7218881870247423
1782941982374907400,4.081907470703125,-8.616229670599102,1.7642549669869243,0.22814590780735014
1782941982384892400,4.091892333984375,-6.233973884302378,0.6330151408292353,0.674917250078544
1782941982394877700,4.101877685546875,-4.297283936944604,-0.41528197902999814,1.1188330567881464
1782941982404862700,4.11186279296875,-2.6001269683271646,-0.9234213246513158,1.3965157334417104
1782941982414847500,4.121847412109375,-1.218779577922821,-0.8236700338277966,1.3246646953262389
1782941982424832500,4.13183251953125,-0.020743512821197508,-0.3418123267367482,1.0889059744276106
1782941982434817500,4.141817626953125,1.1200275272697209,0.10588307157680392,0.8823387881565838
1782941982444803600,4.151803466796875,2.2561177160680295,0.5888442098651081,0.921122253928706
1782941982454788600,4.16178857421875,3.5706314581274983,1.1633674142371861,1.0464617941908538
1782941982464773600,4.171773681640625,4.536949602153897,1.8130245508529246,1.1890874733619392
1782941982474758700,4.181758544921875,5.182058939272165,2.060800603412092,1.1935786473013459
1782941982484743700,4.19174365234375,5.8706461835891,1.9323563020676373,1.1291612663179635
1782941982494728400,4.201728515625,6.052405018752813,2.0353445289857683,1.3602534567102789
1782941982504713500,4.21171337890625,6.611510143110156,1.7346973024606704,1.4890271361395715
1782941982514698500,4.221698486328125,7.027802541291713,1.222779022822529,1.5701666654735802
1782941982524683500,4.23168359375,7.170773088377714,0.8314329959794878,1.669141126705706
1782941982534668800,4.241668701171875,7.124414072784781,0.5533949300169945,1.920338824276626
1782941982544653600,4.251653564453125,7.2602353326380245,0.04364369221962988,1.995053727390617
1782941982554638600,4.261638671875,7.214689386993646,-0.6265797009542584,2.04418615321964
1782941982564623600,4.27162353515625,7.371019181868434,-1.2651216423809528,2.142271118266135
1782941982574608600,4.281608642578125,7.767848170167207,-1.8309530062533914,2.1417126076005397
1782941982584593400,4.291593505859375,8.140977133926748,-2.1758291044749316,1.9941341283276677
1782941982594578400,4.301578369140625,8.402071956133842,-2.339071601347625,1.7253887913674115
1782941982604564700,4.311564697265625,8.390192133247853,-2.3393299600228668,1.3453235986039043
1782941982614549800,4.3215498046875,8.1989593672961,-2.239351874706149,1.0158805587705224
1782941982624534500,4.331534423828125,8.086881386601924,-1.9161691373765468,1.0997626648109406
1782941982634519600,4.34151953125,7.988937729722261,-1.664547369174659,1.0037520218204707
1782941982644504600,4.351504638671875,8.014813929256796,-1.7460431646004317,0.6715050304822623
1782941982654489600,4.361489501953125,8.139805752059816,-1.9329227037787435,0.2683029634876177
1782941982664474400,4.371474365234375,8.075729293468594,-1.8156063840396701,0.05082443403657525
1782941982674459400,4.38145947265625,7.966394474002718,-1.521752617046982,0.049330925809498875
1782941982684444700,4.391444580078125,8.101971403706074,-1.411942873545736,0.2050629922531545
1782941982694429700,4.4014296875,8.202585741099714,-1.458701555980742,0.4409477506842464
1782941982704414700,4.411414794921875,8.355109129428863,-1.5600380701690912,0.5834708097310737
1782941982714399500,4.4213994140625,8.686535963490606,-1.7607168559886515,0.561374567126669
1782941982724384500,4.431384521484375,8.927046262830496,-1.9688975418709218,0.41405988988913595
1782941982734369500,4.44136962890625,8.977629033598303,-2.1102628457173704,0.2387850099172443
1782941982744354600,4.4513544921875,9.139525230428577,-2.2048136452883482,0.10379304049499333
1782941982754339600,4.461339599609375,9.35399507958293,-2.2500822352960705,0.09254135944470762
1782941982764324600,4.47132470703125,9.370466906434297,-2.32065024786368,0.08827449578046798
1782941982774310700,4.481310546875,9.29830417202115,-2.3733210769519206,0.08107998116649687
1782941982784295700,4.491295654296875,9.349344623428582,-2.2252520376831293,0.13139284895174205
1782941982794280400,4.501280517578125,9.292919556373358,-1.9694542989708481,0.15175839530602098
1782941982804265500,4.511265380859375,9.032232145923375,-1.724164510269463,0.16193952451534568
1782941982814250500,4.52125048828125,8.694194953811168,-1.6144333849623798,0.185282260049507
1782941982824235800,4.53123583984375,8.293360237002373,-1.4776437184683977,0.23935294599831103
1782941982834220500,4.541220458984375,8.128331587365269,-1.4061559607073664,0.30548867520689965
1782941982844205600,4.55120556640625,7.809610505619645,-1.3194891923844814,0.5922048454046249
1782941982854190600,4.561190673828125,7.533902051648497,-1.408832340309769,0.7622946508888154
1782941982864175600,4.571175537109375,7.51931296980381,-1.4166132034443317,0.36110257200971246
1782941982874160600,4.58116064453125,6.744488288491964,-1.0600864149175584,0.1640324051413685
1782941982884145400,4.5911455078125,6.122585054916143,-0.8829683182317764,0.06284625920914114
1782941982894130400,4.60113037109375,5.420555560702085,-0.8700146555691957,-0.0979236370049417
1782941982904115700,4.61111572265625,4.255467240956426,-0.7356035547748208,0.04349668496437371
1782941982914100700,4.621100830078125,3.264551246768236,-0.7937179631564766,0.7005294649146497
1782941982924085500,4.63108544921875,2.5943454623162743,-1.1036494431164114,1.4309794363185762
1782941982934071600,4.641071533203125,2.1998311807006594,-1.5976602370768784,1.55870682156533
1782941982944056600,4.651056640625,1.5447516537100077,-2.181425317046791,1.3510507440790533
1782941982954041600,4.66104150390625,-0.3868149592846632,-2.2678138529501854,1.2518668778799473
1782941982964026400,4.6710263671875,-3.685386549076438,-1.7856402848429977,1.3942512956410646
1782941982974011600,4.68101171875,-5.9504410203158855,-2.174454601251334,2.0065606253109873
1782941982983996700,4.69099658203125,-6.878733092808723,-3.413897174105048,3.084365652270615
1782941982993981700,4.700981689453125,-8.479970603850484,-3.7583889491841194,5.181629315683245
1782941983003966500,4.710966552734375,-11.052378375124931,-3.2080849709197876,7.0075710696458815
1782941983013951500,4.720951416015625,-13.609404452872276,-2.6909602086797353,7.315043612146377
1782941983023936500,4.7309365234375,-15.571124212068318,-1.6987749252080917,6.142038527926802
1782941983033921500,4.740921630859375,-16.7991497572422,-0.028744576311390845,4.455581817021966
1782941983043906600,4.750906494140625,-18.069180214452743,1.5893033276200295,2.9761648052707312
1782941983053891600,4.7608916015625,-19.644158079600334,3.0383152642354365,2.5280168408840895
1782941983063876600,4.770876708984375,-20.799299590349197,3.1979782951861617,2.6285946456596254
1782941983073861600,4.780861572265625,-21.361090592789648,2.759719856651127,2.7124469410836696
1782941983083846700,4.7908466796875,-21.89374668616056,3.1789038846209645,3.3801550635010003
1782941983093832400,4.80083251953125,-22.384649211907387,3.8021491804555057,4.085204197797179
1782941983103817500,4.8108173828125,-22.77918278274536,4.135138733789325,3.835588216459751
1782941983113802800,4.820802734375,-22.82137357274294,4.666088315503299,2.319466591037065
1782941983123787500,4.83078759765625,-22.539554526937007,5.644715029221773,-0.09969218104742467
1782941983133772500,4.8407724609375,-22.54836911703348,6.637055503255128,-2.5331997964799404
1782941983143757600,4.850757568359375,-22.54762326710224,6.725812814116478,-4.166444557157159
1782941983153742600,4.86074267578125,-21.37172421500683,5.651777222692966,-4.534684872092306
1782941983163727600,4.8707275390625,-19.157085341274737,4.312636696638167,-3.7867438137918707
1782941983173712400,4.88071240234375,-16.20988856407404,3.4159774875104425,-2.2037121137872338
1782941983183697400,4.890697509765625,-12.876437384080885,3.00952259273231,-0.7091461943514644
1782941983193682700,4.9006826171875,-10.075869091951846,2.5942522310748695,0.09533815968954004
1782941983203667700,4.910667724609375,-7.918342683017253,1.707964047705382,0.5819833111196756
1782941983213652700,4.92065283203125,-6.252350667992234,0.6467736901339143,0.931757848907262
1782941983223637500,4.930637451171875,-4.541238823780417,-0.29090763053819535,1.203785860799998
1782941983233622500,4.94062255859375,-2.690567702230811,-1.1901892971239982,1.115128064790368
1782941983243607600,4.950607666015625,-0.9625199207872152,-1.8863363091707228,0.9378115959882736
1782941983253593600,4.960593505859375,0.7281547000735997,-2.361083088278025,0.712670642150566
1782941983263578600,4.97057861328125,2.440669981342554,-2.6677450450479983,0.4661432744782418
1782941983273563600,4.980563720703125,3.6526796267390247,-2.5723712386563418,0.09530410215631127
1782941983283548700,4.990548583984375,4.381579592221975,-2.3984705696471034,-0.24287688234075902
1782941983293533400,5.000533447265625,5.679953515863418,-2.1063355892710387,-0.29333602672889825
1782941983303518500,5.0105185546875,6.841484435388446,-1.4901125932887196,-0.3738317052014172
1782941983313503500,5.02050341796875,8.255377420088648,-1.5056952162154018,-0.03393945980705321
1782941983323488500,5.030488525390625,8.64786574883461,-0.8958907089732587,-0.013741305908933282
1782941983333473800,5.040473876953125,8.938516335871816,-0.9616525633681565,0.2676779999896884
1782941983343458600,5.05045849609375,9.373776469373702,-1.0376893627356738,0.531623827713728
1782941983353443600,5.060443603515625,9.232577608135342,-0.8639001182116568,0.6132520904127507
1782941983363428600,5.0704287109375,9.047495766028762,-0.6904835794575512,0.7136180060032755
1782941983373413600,5.08041357421875,9.057430300065874,-0.5294902132185175,0.6485667840957641
1782941983383398700,5.090398681640625,9.181036805990338,-0.32202268057428296,0.49723494363874193
1782941983393383400,5.100383544921875,9.291266528469324,0.0031665012069046496,0.4028497829582542
1782941983403369700,5.11036962890625,9.302268399477004,0.27189159909673033,0.5099330971702933
1782941983413354800,5.120354736328125,9.447377712157369,0.42167993643879886,0.7443601310737431
1782941983423339500,5.130339599609375,9.754780696552992,0.5167088749155402,0.9141744075521826
1782941983433324500,5.140324462890625,9.92835914787054,0.672803838121146,0.9296060777008532
1782941983443309600,5.1503095703125,9.878794029712676,0.9295556626878678,0.7909186147615314
1782941983453294600,5.160294677734375,9.734749131393432,1.2978604211613536,0.6033883565895259
1782941983463279400,5.170279296875,9.613408232313393,1.7136954309642314,0.4620509636633098
1782941983473264400,5.180264404296875,9.503111874338984,2.162725731143355,0.4780838145755231
1782941983483249700,5.190249755859375,9.41596901293695,2.5301415779531,0.5639081407248974
1782941983493234700,5.200234619140625,9.331691477838158,2.713236337895691,0.563521260299161
1782941983503219700,5.2102197265625,9.032019964477419,2.8233409726902843,0.4916099433638155
1782941983513204500,5.22020458984375,8.780359325569867,2.8541391387969255,0.40382184286080297
1782941983523189500,5.230189453125,8.949203734102845,2.679515854601562,0.3690015450986102
1782941983533174500,5.240174560546875,9.108872902533411,2.8214772246450184,0.3124717390272766
1782941983543159600,5.25015966796875,9.216086492061615,2.943247747313976,0.12249562207311392
1782941983553145600,5.2601455078125,9.264908682897687,3.0679616299584507,-0.08665065743830054
1782941983563130600,5.270130615234375,9.22307094412148,3.2519431096076965,-0.05273085217978805
1782941983573115600,5.28011572265625,9.153701639819145,3.5356919544324277,-0.11026026374772191
1782941983583100700,5.2901005859375,8.87632729846239,3.920304142975807,-0.268699890383333
1782941983593085400,5.30008544921875,8.391692600938677,4.281104371038079,-0.3708568541090935
1782941983603070500,5.310070556640625,8.128750105038284,4.556272434522211,-0.42456513648629185
1782941983613055500,5.320055419921875,8.022073106604815,4.7030040877074,-0.47069260834567245
1782941983623040800,5.330040771484375,7.839441580259799,4.838648529689014,-0.42996721472553906
1782941983633025500,5.340025634765625,7.566306776168942,4.980675950706005,-0.26632771789189424
1782941983643010600,5.350010498046875,7.310388479816913,5.084365457761288,-0.019863581331644672
1782941983652995600,5.35999560546875,7.027682714304327,5.245924385461211,0.2516515970845707
1782941983662980600,5.369980712890625,6.551930411416292,5.5168321611523625,0.6465920499566942
1782941983672965600,5.379965576171875,5.552262370973825,5.782526586109399,1.4597830676071344
1782941983682950400,5.389950439453125,3.648704877889156,5.51592381413579,3.0562533642470835
1782941983692935400,5.399935302734375,3.1195658527284857,3.965279010733962,3.230138105034828
1782941983702921500,5.40992138671875,1.8752011671721933,1.9983932470768688,2.871417605856061
1782941983712906200,5.41990625,2.0761422571897508,0.6100333475619554,2.7471342235833407
1782941983722891300,5.429891357421875,2.22056943282485,0.8049795810788869,2.202765480586886
1782941983732876500,5.43987646484375,1.9805536390036342,0.6042401511132717,2.1660667121343313
1782941983742861600,5.449861572265625,2.3528514126360416,0.30243630189895626,1.0968819217428565
1782941983752846600,5.4598466796875,1.0415689075827599,0.5938698560073972,1.3144810088336467
1782941983762831400,5.469831298828125,-1.2378554497927428,0.5115802798554301,1.8930187095440922
1782941983772816400,5.47981640625,-4.287502547642588,-0.4218234365627169,1.4483784610174595
1782941983782801400,5.489801513671875,-7.141372221848369,-1.8796207371801137,1.2303532574690879
1782941983792786400,5.499786376953125,-8.59004835063815,-2.4333038364887236,1.8075183546520768
1782941983802771500,5.509771484375,-9.610368718487024,-1.7780208958804606,2.778221435764432
1782941983812756500,5.519756591796875,-11.009546949136256,-0.9633692310929298,3.0372225005626676
1782941983822741500,5.529741455078125,-12.334639368355273,-0.10136924741417169,2.3775427863001823
1782941983832726500,5.5397265625,-12.77691434905529,0.5758106138341128,0.9152139797329902
1782941983842711600,5.549711669921875,-12.76574062861204,0.5024840963385999,-1.9400214298680423
1782941983852697300,5.559697265625,-11.960001753598451,0.4261654112897813,-5.11705425992012
1782941983862682400,5.569682373046875,-10.731831246995926,0.6481001164320856,-7.3660121673613785
1782941983872667600,5.579667724609375,-9.645573302859068,0.9330324719529598,-8.15315564749837
1782941983882652400,5.58965234375,-9.04389628023207,0.8590725519247353,-7.522386970421671
1782941983892637400,5.599637451171875,-8.465508363255857,0.2517166251447983,-5.687246595481038
1782941983902622500,5.60962255859375,-8.202741223922372,-0.5050350594630465,-3.4219869570583104
1782941983912607500,5.619607421875,-7.986721807238459,-1.111237779353559,-1.16463093136698
1782941983922592500,5.629592529296875,-7.298065004816651,-1.51446421360448,0.8524024265110492
1782941983932577300,5.639577392578125,-6.694966424953937,-1.7294687541574238,2.2491835328906773
1782941983942562300,5.649562255859375,-6.323783334565162,-2.0747829515352842,2.5333286835566162
1782941983952547600,5.659547607421875,-5.694189546486735,-2.6583187527939676,1.847463849940896
1782941983962532600,5.66953271484375,-4.691867192143201,-2.829798478266597,0.7689600270621478
1782941983972517400,5.679517333984375,-3.6593484369784592,-2.381218844464421,-0.21886976461373267
1782941983982502400,5.68950244140625,-2.7385575338959693,-1.7356220160901545,-1.1183020186513661
1782941983992488400,5.699488525390625,-1.9989368524342774,-1.1595385766640305,-1.7501634594008326
1782941984002473500,5.709473388671875,-1.712463258820772,-0.5277503472812474,-2.0379174482136966
1782941984012458200,5.719458251953125,-1.845156742042303,-0.31275859314464033,-2.0032902253381906
1782941984022443500,5.729443603515625,-1.932864251589775,-0.37200087304506446,-1.6168807781144976
1782941984032428500,5.739428466796875,-1.9994564923942089,-0.4978368185220286,-1.1552750009354202
1782941984042413600,5.74941357421875,-2.1740759771972895,-0.6289846432041376,-0.5650043384637683
1782941984052398300,5.7593984375,-2.3270991317421195,-0.5743598305039107,0.13973273420855403
1782941984062383400,5.76938330078125,-2.234003499415517,-0.5456944021096453,0.6055601842032745
1782941984072368400,5.779368408203125,-1.8726117352008818,-0.6129353526137769,0.7417886000853031
1782941984082353400,5.789353515625,-1.4001333394169806,-0.5490204412598163,0.716934875466302
1782941984092338400,5.79933837890625,-0.806456667894125,-0.3461295688813552,0.5222512018756941
1782941984102323500,5.809323486328125,-0.3311059315443039,0.009651917703449725,0.19255444300957023
1782941984112308500,5.81930859375,-0.01839198125898838,0.33433282116893676,-0.03646930707823485
1782941984122293500,5.82929345703125,0.24833295578956602,0.37565840917192395,-0.06488923627883196
1782941984132278500,5.839278564453125,0.496253823646903,0.24829141820278017,0.06339541752450167
1782941984142264300,5.849264404296875,0.6499743128061294,-0.01598481051940471,0.21636514311535282
1782941984152249300,5.859249267578125,0.8146078256458044,-0.4938464337116107,0.40603330836519597
1782941984162234600,5.869234619140625,1.1286913107186556,-0.8683162541534751,0.6891162366271019
1782941984172219400,5.879219482421875,1.628441159787774,-0.906479249939695,0.9471246371261774
1782941984182204400,5.889204345703125,1.9112737665504216,-0.6321528249114752,1.087228688865155
1782941984192189400,5.899189453125,2.0625281578570602,-0.36419038195721803,1.1550868579521774
1782941984202174500,5.909174560546875,2.1136942814707753,-0.29905528115853663,1.1776724915087222
1782941984212159500,5.919159423828125,1.9899305391579865,-0.44383872288540005,1.050653985183686
1782941984222144300,5.929144287109375,1.7249807950884102,-0.6528939265798777,0.8143580156031995
1782941984232129300,5.93912939453125,1.361782273712754,-0.7798894904207437,0.6817948076978325
1782941984242114600,5.949114501953125,1.34567635756433,-0.913379530847445,0.5464064959017559
1782941984252099600,5.959099609375,1.4283622395575046,-0.7663269020795822,0.3114980351569131
1782941984262084600,5.969084716796875,1.5147949068635702,-0.4042424794256687,0.1576549059987068
1782941984272069400,5.9790693359375,1.4770447296619413,0.060928698617406185,0.14292089925799517
1782941984282055400,5.989055419921875,1.2022376084446906,0.4723747527463361,0.19081976470407097
1782941984292040400,5.99904052734375,0.7870780136853456,0.6387571916125715,0.17074041488002983
1782941984302025500,6.009025390625,0.3302420081913471,0.553271742028743,0.11854821788789703
1782941984312010500,6.019010498046875,-0.09261807794272899,0.34737054538577794,0.07962406500345096
1782941984321995500,6.02899560546875,-0.3324076617926359,0.15544146773293613,-0.008257106910762377
1782941984331980500,6.03898046875,-0.5586117878824473,0.07880427305316552,-0.06386724542048759
1782941984341965300,6.04896533203125,-0.7802057898283005,0.06779390821177513,-0.13118153515546582
1782941984351950300,6.058950439453125,-0.820505651512742,0.06054265387530904,-0.19194783715223893
1782941984361935400,6.068935302734375,-0.7300275082081555,0.13166653306027873,-0.23993752268692478
1782941984371920400,6.07892041015625,-0.4940092595905065,0.16746035202974452,-0.2834161240053363
1782941984381905700,6.08890576171875,-0.17440847240090368,0.1837568953794427,-0.2278347777652554
1782941984391890400,6.098890380859375,0.14917700051069258,0.16760124007146804,-0.14086394846187902
1782941984401875500,6.10887548828125,0.4851601827025413,0.14990591757344082,-0.1325977220963221
1782941984411860500,6.118860595703125,0.6707172411054373,0.14533537652119993,-0.14968045652080325
1782941984421845500,6.128845458984375,0.8274819202661514,0.10255093147940933,-0.17616138048283755
1782941984431831300,6.138831298828125,1.0719324816644191,0.013218524143844843,-0.21159345346782354
1782941984441816300,6.14881640625,1.211565993282199,-0.0005503638917580246,-0.16079104859996587
1782941984451801600,6.158801513671875,1.2723913411229848,0.05496599082071334,-0.06797350256238133
1782941984461786600,6.16878662109375,1.2629606649547815,0.10594411758165806,-0.01968342757532373
1782941984471771400,6.178771484375,1.1609446440696716,0.11938311607576906,0.02543106784923002
1782941984481756400,6.18875634765625,0.9099357470691204,0.09749167532846331,0.05589950881116092
1782941984491741400,6.198741455078125,0.6352279945731163,0.05195449751242995,0.03063111157719977
1782941984501726500,6.2087265625,0.4295113607168197,-0.028769473290629684,-0.03125750898038968
1782941984511711200,6.218711181640625,0.327627441778779,-0.1184544569235295,-0.030952906860492655
1782941984521696300,6.2286962890625,0.0897948372155428,-0.18903120078686625,0.03451019976655952
1782941984531681500,6.238681640625,-0.0385901351571083,-0.31546960566900667,0.0836157832544297
1782941984541666600,6.24866650390625,-0.07933657156527042,-0.38063959511797874,0.10159985043280757
1782941984551651600,6.258651611328125,-0.2094213335931301,-0.27025778734982014,0.09506360793132335
1782941984561637400,6.268637451171875,-0.3087047146439552,-0.11426544426847249,0.13841969711491836
1782941984571622400,6.278622314453125,-0.43036067102253434,0.0372608227821067,0.2229399731947109
1782941984581607400,6.288607421875,-0.5469459000080824,0.18058942605815828,0.34153906275331974
1782941984591592400,6.298592529296875,-0.8034282599836587,0.24967056106887756,0.578605760977976
1782941984601577500,6.308577392578125,-1.1895517298728226,0.1325840314976871,0.7339345255840569
1782941984611562500,6.3185625,-1.621152756345272,-0.1643442841021344,0.8682394625902176
1782941984621547500,6.328547607421875,-1.6092793632000684,-0.4779002381695434,0.7908568015716969
1782941984631532500,6.338532470703125,-1.1231862835615873,-0.8011754395555705,0.3655024144038558
1782941984641517300,6.348517333984375,-1.3752952507585285,-0.8822888846002519,-0.03630063598044216
1782941984651502300,6.35850244140625,-2.0708248615592715,-0.6552649665601551,0.049517918015271424
1782941984661487400,6.3684873046875,-2.1122768158882854,-0.34165260613039133,0.18669665689207612
1782941984671472600,6.37847265625,-1.9651637621700762,-0.007800335020013153,0.303703947214596
1782941984681460700,6.388460693359375,-1.7780121280521153,0.1671297135695815,0.4522378275161609
1782941984691445500,6.398445556640625,-1.7548206375569104,0.2053788532692939,0.5730629956264048
1782941984701431800,6.408431884765625,-1.844433103942871,0.1356583974417299,0.5247423976369202
1782941984711416800,6.418416748046875,-1.9701742838084697,0.02900755636282265,0.3386561277281493
1782941984721401600,6.428401611328125,-2.2634113802075384,-0.06678765377867966,0.13119838582556695
1782941984731386600,6.43838671875,-2.3907412905693053,-0.1711505665834993,-0.08597337923124432
1782941984741371600,6.44837158203125,-2.3477578888893125,-0.22622016390915958,-0.19060962908472864
1782941984751356700,6.458356689453125,-2.2682529750198124,-0.2954938258172944,-0.193884851363115
1782941984761341700,6.468341796875,-2.1318653134554624,-0.37623131368905305,-0.15098434219360352
1782941984771326700,6.47832666015625,-2.08020936049819,-0.43004871899653224,-0.11887801609784364
1782941984781311700,6.488311767578125,-1.8658534931123256,-0.351304852627404,-0.15991313325427473
1782941984791296800,6.498296875,-1.5495692831248045,-0.2304247759921476,-0.24532639438472686
1782941984801281800,6.50828173828125,-1.363392046996951,-0.10709591796528548,-0.38729002945050595
1782941984811266600,6.5182666015625,-1.1993167525619268,0.03236618260834366,-0.48469263825602826
1782941984821251600,6.52825146484375,-1.0692927808105945,0.13345712453778832,-0.44392179805897175
1782941984831236600,6.538236572265625,-1.0429220757573843,0.20717180110067127,-0.2996100654970854
1782941984841222700,6.54822265625,-1.0566261914610862,0.1954570691158995,-0.13207104047425092
1782941984851207700,6.558207763671875,-0.9424012618660926,0.07695685508819297,-0.014613193372637032
1782941984861192700,6.568192626953125,-0.7441232535779476,-0.01312837990866974,0.03385170845836401
1782941984871177700,6.578177734375,-0.5804378352433442,0.00000966287748888135,-0.010521540144830942
1782941984881162800,6.588162841796875,-0.43819852504134177,0.07623252286901697,-0.13052782962024212
1782941984891147500,6.5981474609375,-0.3589648293286562,0.12289827545671723,-0.2231094480101019
1782941984901132500,6.608132568359375,-0.2914905449926853,0.09936847465154715,-0.2924452884342521
1782941984911117800,6.618117919921875,-0.18554712153077124,-0.007483542422112077,-0.3337571036402136
1782941984921102800,6.628102783203125,-0.024670330876111982,-0.08306954754851759,-0.34749424483068286
1782941984931087600,6.638087646484375,0.17192776150107383,-0.0949440275391098,-0.35673875077702105
1782941984941072600,6.64807275390625,0.2997597761660814,-0.011679418642795644,-0.4225083500869572
1782941984951057700,6.6580576171875,0.4194055617660284,0.13803471638532355,-0.5414702450759709
1782941984961042700,6.668042724609375,0.5628618465423584,0.28826646837964653,-0.6768336050938815
1782941984971028700,6.67802880859375,0.7773696896195411,0.41346521193161606,-0.805506381431967
1782941984981013800,6.688013671875,0.9241641789078712,0.5179699078273028,-0.942772579396516
1782941984990998800,6.697998779296875,1.0377782831281424,0.5459503496320918,-1.0078582150302826
1782941985000983800,6.70798388671875,1.0001374115198851,0.5135251303128898,-1.035737571080774
1782941985010968600,6.717968505859375,0.7461100434809923,0.5896374060694128,-1.0608769077081233
1782941985020953600,6.72795361328125,0.5415870033234358,0.7181504618011415,-1.0134158491574228
1782941985030938600,6.737938720703125,0.40016251663565633,0.7461503754913806,-0.8321754118446261
1782941985040923600,6.747923583984375,0.4345972856789827,0.7191384499251842,-0.6472038251794874
1782941985050909000,6.757908935546875,0.5860036526769399,0.592734093443118,-0.5189854050127789
1782941985060893700,6.767893798828125,0.7218886254161596,0.4208774974821135,-0.45538555095735933
1782941985070878700,6.777878662109375,0.7948919023066758,0.2650007436044514,-0.4984405931014567
1782941985080863700,6.78786376953125,0.9675526542574167,0.10733732550572603,-0.5250129947392269
1782941985090848800,6.797848876953125,1.2583353432416915,0.04330547324120998,-0.504638424828276
1782941985100833500,6.80783349609375,1.4773919356644152,0.10300346101988106,-0.4861132091110572
1782941985110819600,6.817819580078125,1.5851070449739693,0.2701578706393018,-0.4957486871363595
1782941985120804900,6.827804931640625,1.5958341906934976,0.42672271637897935,-0.45864959425460544
1782941985130789600,6.83778955078125,1.5019780953884123,0.5565538324393332,-0.40771980014741416
1782941985140774700,6.847774658203125,1.3284738783508538,0.6624385114513337,-0.3359973203150555
1782941985150759700,6.857759765625,1.1404501375734806,0.7299214174851775,-0.277354138818942
1782941985160744700,6.86774462890625,0.8554676593005657,0.7773898556247353,-0.21215390036217868
1782941985170729700,6.877729736328125,0.5802303299725056,0.7462173032477497,-0.14730031991861758
1782941985180714500,6.887714599609375,0.5050684137433767,0.6459172925002873,-0.10956972420029341
1782941985190699500,6.897699462890625,0.6159387722134589,0.5868970213200897,-0.06805083298175596
1782941985200684800,6.907684814453125,0.8756114526629447,0.5893267692176625,-0.009264288359042257
1782941985210669800,6.917669921875,1.0627496427774428,0.6608962504453957,0.12960004725083707
1782941985220654800,6.92765478515625,1.1032236919850111,0.7554319255124777,0.3270555601749569
1782941985230639600,6.9376396484375,1.0079524691849946,0.8100454861663281,0.47296957683432844
1782941985240625700,6.947625732421875,0.873328310161829,0.8046668618679046,0.5916345712359994
1782941985250610700,6.957610595703125,0.7305085697233676,0.7999940477512777,0.6537304504692554
1782941985260595700,6.967595703125,0.5767179379373788,0.8187379111878573,0.6414709075506776
1782941985270580700,6.977580810546875,0.42688393482267856,0.8228948847368359,0.5069467748358846
1782941985280565800,6.987565673828125,0.28248189362883563,0.8015747410714625,0.3175727519607171
1782941985290550800,6.99755078125,0.27975100736021996,0.7006244497217238,0.1818322839924134
1782941985300535600,7.00753564453125,0.3616308336675167,0.5522414491329342,0.1885674374663271
1782941985310520600,7.0175205078125,0.323742709299922,0.4445046759808436,0.3344796092284843
1782941985320505600,7.027505615234375,0.22264614134728908,0.3583351531229913,0.4683275597147643
1782941985330490600,7.03749072265625,0.14188216732740402,0.2641550500279292,0.5509192971510812
1782941985340476000,7.047475830078125,0.14688275209367274,0.14480810124408452,0.6064851535610855
1782941985350460700,7.057460693359375,0.1278004504829645,0.055569253943488,0.6452024952944367
1782941985360445700,7.06744580078125,0.11262392413914203,-0.01452785317674279,0.5575838330741971
1782941985370431700,7.077431640625,0.1441653098285198,-0.06807773012183606,0.4991660943644121
1782941985380416500,7.08741650390625,0.1274263564735651,-0.08733849357198924,0.538325151983276
1782941985390401500,7.097401611328125,0.03284253141582012,-0.1449529896074906,0.5382946837797761
1782941985400386800,7.10738671875,-0.07982640090882778,-0.2741886239927262,0.5187861926462501
1782941985410371800,7.117371826171875,-0.11749299148023128,-0.4518943843733519,0.5106678046530112
1782941985420356900,7.12735693359375,-0.11114216114878654,-0.5766734412085265,0.4640091485263779
1782941985430341600,7.137341552734375,-0.09997194783687591,-0.5896907436918467,0.4120324026495218
1782941985440326700,7.14732666015625,-0.16433189954459665,-0.5607235193394124,0.379016012504138
1782941985450311700,7.157311767578125,-0.2684586289733648,-0.5356961186539382,0.35046215472556647
1782941985460296700,7.167296630859375,-0.40477030269205566,-0.49352271818257865,0.23703907956536857
1782941985470281700,7.17728173828125,-0.5361842674970626,-0.4011465592369437,0.09984271370032802
1782941985480266800,7.187266845703125,-0.6496890661239624,-0.30169549346901475,0.046574242945923466
1782941985490251800,7.197251708984375,-0.657746700373292,-0.1943621500186622,0.007072249074326828
1782941985500237800,7.20723779296875,-0.5987830547511577,-0.12774747818671167,-0.044612678815680554
1782941985510222600,7.21722265625,-0.5264192448079585,-0.09879603592529893,-0.04122840210567228
1782941985520207600,7.22720751953125,-0.47100832323133945,-0.11014788941442966,-0.054527439573244185
1782941985530192600,7.237192626953125,-0.4439052122503519,-0.16325447957143185,-0.05105237930724397
1782941985540177700,7.247177734375,-0.41916298518180845,-0.20697708224616942,-0.07218146651308052
1782941985550162700,7.25716259765625,-0.329046660926938,-0.17224274573437867,-0.078636350874044
1782941985560147700,7.267147705078125,-0.2239133848041296,-0.06495879438370465,-0.033029505355283616
1782941985570132700,7.2771328125,-0.07748305265307426,0.10551146178543568,0.006487389257922768
1782941985580117800,7.28711767578125,0.07950666743516921,0.28526874786838885,0.0016948394854553043
1782941985590102800,7.297102783203125,0.16948387548029423,0.37300519124940035,-0.07770732639562337
1782941985600087600,7.307087646484375,0.1850432636618614,0.3766588914513588,-0.20914606031570582
1782941985610072600,7.317072509765625,0.26315526186823845,0.26401260934993626,-0.24574089346975087
1782941985620057600,7.3270576171875,0.3133142542660236,0.16853709614947437,-0.19378573837019503
1782941985630043600,7.337043701171875,0.2597930919587612,0.11233970037028193,-0.1044513765395619
1782941985640028700,7.347028564453125,0.20911329055726527,0.04528860988244414,-0.08657207577675581
1782941985650013700,7.357013671875,0.2505056236535311,-0.03747998195812106,-0.07926483976962044
1782941985659998700,7.366998779296875,0.30219664792418477,-0.11339461625069379,-0.004031410940550267
1782941985669983700,7.376983642578125,0.27631284960508345,-0.1401214412651956,0.06778590756841003
1782941985679965000,7.38696484375,0.12322890478372574,-0.17065218860730527,0.1412543542852625
1782941985689950000,7.396949951171875,-0.14041501738429069,-0.15251754311025142,0.16956897821417077
1782941985699935000,7.40693505859375,-0.30567455316781994,-0.17923399286121128,0.02290591501947492
1782941985709920300,7.416920166015625,-0.32612814313173294,-0.23229221383184193,-0.06685534872002899
1782941985719905000,7.426905029296875,-0.2866185550421476,-0.2268865553960204,-0.09932711059469729
1782941985729890000,7.43689013671875,-0.17969605741500855,-0.14407719315364956,-0.09311055590109898
1782941985739875000,7.446875,-0.09897183088362216,-0.015360212347656487,-0.059352206548303366
1782941985749861000,7.456861083984375,-0.01625263114273548,0.1078684001751244,-0.004379091867059469
1782941985759846000,7.466845947265625,0.004990647894144058,0.1889879096344113,-0.021007004329282788
1782941985769831200,7.4768310546875,0.08652151463329792,0.23529767925813794,-0.10591584133524447
1782941985779816200,7.486816162109375,0.2521411159008741,0.262516379442811,-0.1735086009517312
1782941985789801200,7.49680126953125,0.41183366520702835,0.3054939359039068,-0.2134201391720213
1782941985799786000,7.506785888671875,0.4049398140400648,0.35634354091435666,-0.2745141478863545
1782941985809771000,7.51677099609375,0.2630997322887182,0.4107784570656717,-0.3929967531921342
1782941985819756000,7.526756103515625,0.19181319618821144,0.3762636085234582,-0.5204517512382939
1782941985829741000,7.536740966796875,0.09017828357517718,0.26797406032681464,-0.5679309665001928
1782941985839726000,7.54672607421875,0.018187398597598076,0.15315087257772683,-0.7221730683807284
1782941985849711000,7.556711181640625,0.1356178462356329,-0.026113223160803316,-0.7096421611748636
1782941985859696000,7.566696044921875,0.980504490289092,-0.2104899857379496,-0.3127019675865769
1782941985869681200,7.57668115234375,1.22704354839921,-0.2769071622364223,0.12847807574989273
1782941985879667000,7.5866669921875,-0.25658465130627156,-0.44724677776321764,0.45575686848778274
1782941985889652000,7.59665185546875,-0.4467150089740753,-0.48956689322888847,0.6866640211693942
1782941985899637000,7.606636962890625,-0.0115635965436697,-0.37977541603669523,0.41199959635846317
1782941985909622000,7.6166220703125,0.5160246920436621,-0.31996289850026366,-0.11230168818114325
1782941985919607000,7.62660693359375,0.8598919054836034,-0.2587653563462198,-0.37121348552703853
