time,seconds_elapsed,z,y,x
1782941978370909000,0.077908935546875,0.5407323241233826,0.012451069429516792,-0.12162439525127411
1782941978380894000,0.08789404296875,0.45665425062179565,-0.07801970839500427,-0.20825035870075226
1782941978390879000,0.09787890625,0.3103868067264557,-0.022569958120584488,-0.29269519448280334
1782941978400864000,0.107864013671875,0.18862684071063995,0.09718281030654907,-0.36383938789367676
1782941978410849000,0.11784912109375,0.09707576036453247,0.20145508646965027,-0.3906109631061554
1782941978420834000,0.127833984375,0.049218758940696716,0.2849539816379547,-0.3758232295513153
1782941978430819000,0.137819091796875,0.029210805892944336,0.3333356976509094,-0.3275088965892792
1782941978440804000,0.14780419921875,0.01930198259651661,0.30024248361587524,-0.25806349515914917
1782941978450788900,0.157788818359375,0.007678535301238298,0.2228979468345642,-0.18070924282073975
1782941978460774000,0.16777392578125,-0.010987561196088791,0.10231879353523254,-0.09128642082214355
1782941978470759000,0.177759033203125,-0.03987021744251251,0.021806977689266205,-0.007219073828309774
1782941978480744000,0.187743896484375,-0.08304538577795029,0.006789148785173893,0.08164368569850922
1782941978490729200,0.197729248046875,-0.1282445192337036,0.035981178283691406,0.16678504645824432
1782941978500714000,0.2077138671875,-0.18728280067443848,0.057160764932632446,0.24316982924938202
1782941978510700000,0.217699951171875,-0.27553942799568176,0.06232254207134247,0.3182884752750397
1782941978520685000,0.22768505859375,-0.3893123269081116,0.1674915850162506,0.38723108172416687
1782941978530669800,0.237669921875,-0.5112406015396118,0.3444575071334839,0.4384666681289673
1782941978540654800,0.24765478515625,-0.6071828603744507,0.46305951476097107,0.4670719504356384
1782941978550639900,0.257639892578125,-0.6484766602516174,0.504359245300293,0.48395422101020813
1782941978560625200,0.267625244140625,-0.628029465675354,0.5263586044311523,0.4978601634502411
1782941978570610000,0.27760986328125,-0.5506401062011719,0.5259361267089844,0.5071397423744202
1782941978580595000,0.287594970703125,-0.431074321269989,0.5216002464294434,0.5145987272262573
1782941978590580000,0.297580078125,-0.3046328127384186,0.5744537711143494,0.5444719791412354
1782941978600565000,0.30756494140625,-0.18306003510951996,0.6087228059768677,0.5846379995346069
1782941978610550000,0.317550048828125,-0.047549206763505936,0.551476001739502,0.591833770275116
1782941978620534800,0.32753466796875,0.0524306520819664,0.5008456110954285,0.5437692999839783
1782941978630519800,0.337519775390625,0.09712506085634232,0.43354254961013794,0.43693292140960693
1782941978640505000,0.347505126953125,0.1097513735294342,0.26226747035980225,0.26600033044815063
1782941978650490000,0.357489990234375,0.12151350826025009,0.01841556280851364,0.08242583274841309
1782941978660475100,0.36747509765625,0.15131428837776184,-0.30926084518432617,-0.005779927130788565
1782941978670460000,0.3774599609375,0.13602416217327118,-0.46579059958457947,-0.0035701734013855457
1782941978680440600,0.387440673828125,0.09677315503358841,-0.5580888390541077,0.043086543679237366
1782941978690425600,0.397425537109375,0.10118194669485092,-0.5810926556587219,0.08918318897485733
1782941978700410600,0.40741064453125,0.12562789022922516,-0.5137497782707214,0.11433648318052292
1782941978710395600,0.417395751953125,0.1308378130197525,-0.4375436007976532,0.09420681744813919
1782941978720380700,0.427380615234375,0.11640561372041702,-0.358960896730423,0.037996806204319
1782941978730365700,0.43736572265625,0.09771041572093964,-0.2581157684326172,-0.005165701732039452
1782941978740350700,0.447350830078125,0.08058468997478485,-0.12875886261463165,0.00865610409528017
1782941978750335700,0.457335693359375,0.06597429513931274,0.043034326285123825,0.057033322751522064
1782941978760320800,0.46732080078125,0.050087735056877136,0.1992814540863037,0.12227384746074677
1782941978770305500,0.477305419921875,0.021958209574222565,0.32950878143310547,0.1558370292186737
1782941978780290600,0.48729052734375,-0.016736987978219986,0.4079205095767975,0.14998899400234222
1782941978790275600,0.497275634765625,-0.06274983286857605,0.41425594687461853,0.08452609926462173
1782941978800260900,0.5072607421875,-0.09284595400094986,0.3339765667915344,-0.014747489243745804
1782941978810245600,0.51724560546875,-0.10291478037834167,0.22597771883010864,-0.10169826447963715
1782941978820230700,0.527230712890625,-0.105915367603302,0.17323647439479828,-0.15262830257415771
1782941978830216700,0.537216796875,-0.10211322456598282,0.15587371587753296,-0.1741342842578888
1782941978840201700,0.54720166015625,-0.11313018947839737,0.18114657700061798,-0.1760251224040985
1782941978850186500,0.5571865234375,-0.1276806741952896,0.2555791139602661,-0.1786690056324005
1782941978860171800,0.567171875,-0.1367495357990265,0.3783670663833618,-0.20213837921619415
1782941978870156800,0.57715673828125,-0.13462260365486145,0.45413753390312195,-0.25087931752204895
1782941978880141800,0.587141845703125,-0.13665352761745453,0.4026157557964325,-0.3008359670639038
1782941978890126600,0.597126708984375,-0.15402503311634064,0.271300733089447,-0.3165374994277954
1782941978900111600,0.607111572265625,-0.15643732249736786,0.11900173127651215,-0.2794950306415558
1782941978910096600,0.6170966796875,-0.132966548204422,-0.017702901735901833,-0.2012690156698227
1782941978920081700,0.62708154296875,-0.10548698157072067,-0.1332521289587021,-0.11896856129169464
1782941978930066700,0.637066650390625,-0.09780444204807281,-0.21128882467746735,-0.08807176351547241
1782941978940051700,0.6470517578125,-0.11556905508041382,-0.326371967792511,-0.11283676326274872
1782941978950036700,0.65703662109375,-0.18134626746177673,-0.5873388648033142,-0.16124862432479858
1782941978960021800,0.667021728515625,-0.26664999127388,-0.7109031677246094,-0.17232364416122437
1782941978970006800,0.6770068359375,-0.26832103729248047,-0.6531474590301514,-0.12291011214256287
1782941978979991600,0.686991455078125,-0.15182985365390778,-0.3555365800857544,-0.045341018587350845
1782941978989976600,0.6969765625,-0.044767964631319046,0.1375337839126587,0.003204011358320713
1782941978999961600,0.706961669921875,0.002747622784227133,0.6613402962684631,0.01058363076299429
1782941979009946600,0.716946533203125,0.07546266168355942,0.9102131724357605,0.08875430375337601
1782941979019932000,0.726931884765625,0.21114538609981537,1.249483346939087,0.14807088673114777
1782941979029916700,0.736916748046875,0.30709338188171387,1.2652992010116577,0.05231631547212601
1782941979039901700,0.746901611328125,0.40089043974876404,0.9808813333511353,0.015079999342560768
1782941979049886700,0.75688671875,0.4757208228111267,0.8929380774497986,-0.05922728404402733
1782941979059871700,0.766871826171875,0.5273414254188538,0.817596971988678,-0.1387937366962433
1782941979069856800,0.776856689453125,0.526820719242096,0.7637059092521667,-0.2376592457294464
1782941979079841500,0.786841552734375,0.49920934438705444,0.6338304877281189,-0.33283743262290955
1782941979089826600,0.79682666015625,0.46620529890060425,0.4283352792263031,-0.39336442947387695
1782941979099811800,0.806811767578125,0.4317666292190552,0.3044314682483673,-0.4327544569969177
1782941979109796900,0.816796875,0.38571441173553467,0.2768479287624359,-0.4754529595375061
1782941979119781600,0.82678173828125,0.36470845341682434,0.3014523386955261,-0.5929644107818604
1782941979129766700,0.8367666015625,0.38373130559921265,0.06588126718997955,-0.7862753868103027
1782941979139752700,0.846752685546875,0.3529752492904663,-0.3460322320461273,-0.9764788746833801
1782941979149737500,0.856737548828125,0.2750779390335083,-0.6909758448600769,-1.1022353172302246
1782941979159722800,0.86672265625,0.21225664019584656,-0.9597343802452087,-1.1375744342803955
1782941979169707800,0.876707763671875,0.20351547002792358,-1.2297476530075073,-1.091122031211853
1782941979179692800,0.88669287109375,0.256911039352417,-1.3876276016235352,-0.9849985241889954
1782941979189677800,0.896677734375,0.3406233489513397,-1.4385497570037842,-0.8788022994995117
1782941979199662600,0.90666259765625,0.4466312527656555,-1.4540871381759644,-0.7936348915100098
1782941979209647600,0.916647705078125,0.5512697100639343,-1.4347625970840454,-0.71889728307724
1782941979219632600,0.926632568359375,0.6560491323471069,-1.3420614004135132,-0.6389321088790894
1782941979229617700,0.93661767578125,0.753991961479187,-1.1556925773620605,-0.5527759790420532
1782941979239602700,0.946602783203125,0.8470140099525452,-0.860366702079773,-0.46543020009994507
1782941979249587700,0.956587646484375,0.9341824650764465,-0.474263459444046,-0.38811564445495605
1782941979259572700,0.96657275390625,1.0161616802215576,-0.07630623131990433,-0.3296794891357422
1782941979269557800,0.976557861328125,1.0934934616088867,0.28472259640693665,-0.2750420570373535
1782941979279542800,0.986542724609375,1.1600501537322998,0.5444207787513733,-0.207704558968544
1782941979289527600,0.996527587890625,1.218886137008667,0.7456299662590027,-0.12711423635482788
1782941979299512600,1.0065126953125,1.2659894227981567,0.8391060829162598,-0.015104873105883598
1782941979309497600,1.01649755859375,1.2924765348434448,0.8256381154060364,0.10789164900779724
1782941979319483000,1.02648291015625,1.2868045568466187,0.7943784594535828,0.21832653880119324
1782941979329467600,1.036467529296875,1.2645756006240845,0.7890922427177429,0.30574190616607666
1782941979339452700,1.04645263671875,1.265230417251587,0.8575666546821594,0.3859826922416687
1782941979349437700,1.056437744140625,1.3264586925506592,1.0786093473434448,0.4762299954891205
1782941979359422700,1.066422607421875,1.4325262308120728,1.3119529485702515,0.6144461631774902
1782941979369407700,1.07640771484375,1.5544270277023315,1.530828595161438,0.83255934715271
1782941979379392500,1.086392578125,1.6035175323486328,1.6961860656738281,1.051204800605774
1782941979389377500,1.09637744140625,1.4666227102279663,1.7031025886535645,1.154059648513794
1782941979399362800,1.10636279296875,1.1515955924987793,1.5259102582931519,0.9913152456283569
1782941979409347800,1.116347900390625,0.8012367486953735,1.120678186416626,0.5967048406600952
1782941979419332900,1.126332763671875,0.5605714321136475,0.5044647455215454,0.2556830644607544
1782941979429317600,1.136317626953125,0.48367634415626526,-0.38506197929382324,0.22226284444332123
1782941979439302700,1.146302734375,0.5927770137786865,-1.1699022054672241,0.5999153852462769
1782941979449288700,1.156288818359375,0.8436247110366821,-1.5481452941894531,1.2096104621887207
1782941979459273500,1.1662734375,1.2153189182281494,-1.5463510751724243,1.808158278465271
1782941979469258800,1.1762587890625,1.668238639831543,-1.2313146591186523,2.273559331893921
1782941979479243800,1.186243896484375,2.090484619140625,-0.7188742756843567,2.5287508964538574
1782941979489228800,1.196228759765625,2.3563597202301025,-0.16676856577396393,2.504763603210449
1782941979499213600,1.206213623046875,2.402160167694092,0.18841296434402466,2.161750555038452
1782941979509198600,1.216198486328125,2.2107937335968018,0.26698362827301025,1.6150087118148804
1782941979519183600,1.22618359375,1.8089157342910767,0.13431105017662048,0.9981861710548401
1782941979529168600,1.236168701171875,1.2517293691635132,-0.17705245316028595,0.354026734828949
1782941979539153700,1.246153564453125,0.6550303101539612,-0.6025331616401672,-0.3044579327106476
1782941979549138700,1.256138671875,0.19050994515419006,-1.1048420667648315,-0.9130818247795105
1782941979559123700,1.266123779296875,-0.05349365994334221,-1.5746711492538452,-1.3412775993347168
1782941979569108700,1.276108642578125,-0.09959105402231216,-1.848546028137207,-1.5089890956878662
1782941979579093800,1.28609375,-0.06633269786834717,-1.9612959623336792,-1.4511218070983887
1782941979589078800,1.296078857421875,-0.04833120107650757,-1.9854636192321777,-1.2801575660705566
1782941979599063600,1.3060634765625,-0.061737287789583206,-1.8881181478500366,-1.0549439191818237
1782941979609048600,1.316048583984375,-0.08510053902864456,-1.625824213027954,-0.837363064289093
1782941979619033600,1.32603369140625,-0.10328833013772964,-1.238253116607666,-0.6483390927314758
1782941979629019000,1.336018798828125,-0.11433692276477814,-0.8505788445472717,-0.5101431608200073
1782941979639003600,1.346003662109375,-0.11800090223550797,-0.5376734137535095,-0.4261380136013031
1782941979648988700,1.35598876953125,-0.11175387352705002,-0.3171015679836273,-0.3863338828086853
1782941979658973700,1.3659736328125,-0.1045079454779625,-0.29475098848342896,-0.37166357040405273
1782941979668958700,1.375958740234375,-0.08318494260311127,-0.36315369606018066,-0.36944711208343506
1782941979678943700,1.38594384765625,-0.03165490925312042,-0.5028807520866394,-0.3508249819278717
1782941979688928500,1.395928466796875,0.03367616981267929,-0.6054438948631287,-0.2884853780269623
1782941979698913500,1.40591357421875,0.09986184537410736,-0.5851522088050842,-0.168551504611969
1782941979708898600,1.415898681640625,0.15010102093219757,-0.4773843288421631,0.0020232591778039932
1782941979718884400,1.42588427734375,0.19231665134429932,-0.31568199396133423,0.20954342186450958
1782941979728869600,1.43586962890625,0.2408844381570816,-0.09673652052879333,0.3989361524581909
1782941979738854700,1.445854736328125,0.2920094132423401,0.15008285641670227,0.5976839065551758
1782941979748839700,1.455839599609375,0.33669281005859375,0.3865584433078766,0.8031514883041382
1782941979758824700,1.46582470703125,0.35104191303253174,0.6127721667289734,0.9462888836860657
1782941979768809500,1.4758095703125,0.2960259020328522,0.8233060240745544,0.9964542984962463
1782941979778794500,1.48579443359375,0.17454448342323303,1.0033029317855835,0.9594752788543701
1782941979788779500,1.495779541015625,0.013134654611349106,1.1806591749191284,0.8614912033081055
1782941979798764500,1.5057646484375,-0.17232654988765717,1.3825222253799438,0.7533863186836243
1782941979808749600,1.51574951171875,-0.3732893168926239,1.6029938459396362,0.6667503118515015
1782941979818734600,1.525734619140625,-0.564287543296814,1.7527194023132324,0.6118154525756836
1782941979828719600,1.5357197265625,-0.7264421582221985,1.8224084377288818,0.5952836871147156
1782941979838704600,1.54570458984375,-0.820991039276123,1.8451260328292847,0.6123782396316528
1782941979848689700,1.555689697265625,-0.850542426109314,1.8068398237228394,0.6408489942550659
1782941979858674400,1.56567431640625,-0.8140360713005066,1.7374769449234009,0.6869664192199707
1782941979868659500,1.575659423828125,-0.7357598543167114,1.6493384838104248,0.7427868843078613
1782941979878644500,1.58564453125,-0.6447404623031616,1.5515917539596558,0.7870774269104004
1782941979888629800,1.595629638671875,-0.5404956340789795,1.4515801668167114,0.8190932273864746
1782941979898614500,1.605614501953125,-0.4254761040210724,1.3430291414260864,0.8250294327735901
1782941979908599600,1.615599609375,-0.3137819468975067,1.2321503162384033,0.8161444664001465
1782941979918584600,1.62558447265625,-0.21758083999156952,1.108060359954834,0.7985612154006958
1782941979928569600,1.635569580078125,-0.1655132919549942,0.9474714398384094,0.7863860130310059
1782941979938554600,1.6455546875,-0.16307303309440613,0.7035964727401733,0.7427820563316345
1782941979948539400,1.655539306640625,-0.21693307161331177,0.38698944449424744,0.6296870112419128
1782941979958524400,1.6655244140625,-0.3000127673149109,0.06522312015295029,0.4816384017467499
1782941979968509700,1.675509765625,-0.38517701625823975,-0.20822641253471375,0.3745369613170624
1782941979978494700,1.68549462890625,-0.50589919090271,-0.32515835762023926,0.313337504863739
1782941979988479500,1.6954794921875,-0.6401157379150391,-0.48560190200805664,0.4480774700641632
1782941979998464500,1.705464599609375,-0.7435516119003296,-0.5191649198532104,0.5730881094932556
1782941980008450600,1.715450439453125,-0.8466381430625916,-0.7484838366508484,0.5377448201179504
1782941980018435600,1.725435546875,-0.8603560924530029,-1.051861047744751,0.3623119592666626
1782941980028420600,1.735420654296875,-0.7942126989364624,-1.2088576555252075,0.1506815105676651
1782941980038405600,1.745405517578125,-0.6349620819091797,-0.9505276083946228,-0.08073706179857254
1782941980048390700,1.755390625,-0.34045276045799255,-0.10688544809818268,-0.3045593202114105
1782941980058375700,1.765375732421875,0.10920146852731705,1.2239494323730469,-0.5253362059593201
1782941980068360400,1.7753603515625,0.6110650897026062,2.7776739597320557,-0.796310305595398
1782941980078345500,1.785345458984375,0.8107401132583618,3.8447048664093018,-1.2575277090072632
1782941980088330500,1.79533056640625,0.3973916471004486,4.021602630615234,-1.9071327447891235
1782941980098315500,1.8053154296875,-0.5677802562713623,3.4420511722564697,-2.6101529598236084
1782941980108300800,1.81530078125,-1.7700108289718628,2.435011148452759,-3.145020008087158
1782941980118285600,1.82528564453125,-2.783909559249878,1.2318661212921143,-3.2979514598846436
1782941980128270600,1.8352705078125,-3.3542776107788086,0.220620259642601,-2.9232800006866455
1782941980138255600,1.845255615234375,-3.498021364212036,-0.48353710770606995,-2.184272527694702
1782941980148240600,1.85524072265625,-3.2463912963867188,-0.7696464657783508,-1.3797976970672607
1782941980158225700,1.8652255859375,-2.6691224575042725,-0.692303478717804,-0.8644576668739319
1782941980168210400,1.87521044921875,-2.057607889175415,-0.24906621873378754,-0.7782604694366455
1782941980178195500,1.885195556640625,-1.610127568244934,0.36815863847732544,-1.0758767127990723
1782941980188180700,1.8951806640625,-1.2843409776687622,0.9813551306724548,-1.5574039220809937
1782941980198165800,1.905165771484375,-0.976097822189331,1.399684190750122,-1.9149609804153442
1782941980208150500,1.915150634765625,-0.5353343486785889,1.4323619604110718,-1.9197688102722168
1782941980218135600,1.925135498046875,0.11487267911434174,1.0536189079284668,-1.4974538087844849
1782941980228120600,1.93512060546875,0.8854328989982605,0.39334169030189514,-0.7903153896331787
1782941980238105600,1.945105712890625,1.5388975143432617,-0.46179452538490295,-0.06419600546360016
1782941980248090600,1.955090576171875,1.8372511863708496,-1.3224464654922485,0.44294053316116333
1782941980258075400,1.965075439453125,1.693401575088501,-1.977982759475708,0.576257050037384
1782941980268061700,1.975061767578125,1.2914007902145386,-2.254462957382202,0.22633497416973114
1782941980278046700,1.985046630859375,0.9257565140724182,-2.3789098262786865,-0.3960585594177246
1782941980288031500,1.995031494140625,0.8521621823310852,-2.673485517501831,-0.8291292786598206
1782941980298016500,2.0050166015625,1.1580640077590942,-3.2274739742279053,-0.7326567769050598
1782941980308001500,2.01500146484375,1.7453359365463257,-3.8467745780944824,-0.07018350064754486
1782941980317986600,2.024986572265625,2.2825686931610107,-4.295192241668701,0.8644714951515198
1782941980327971600,2.0349716796875,2.561393976211548,-4.388319492340088,1.6047240495681763
1782941980337956600,2.04495654296875,2.5814948081970215,-4.037713527679443,1.869083285331726
1782941980347941600,2.054941650390625,2.3821308612823486,-3.3956151008605957,1.6978113651275635
1782941980357926700,2.0649267578125,2.041496992111206,-2.556551694869995,1.3374824523925781
1782941980367911700,2.07491162109375,1.6914244890213013,-1.7460664510726929,0.9904425740242004
1782941980377896400,2.084896484375,1.4366955757141113,-1.197777509689331,0.7730900049209595
1782941980387881500,2.094881591796875,1.2956758737564087,-0.9570632576942444,0.7114617824554443
1782941980397866500,2.104866455078125,1.1826553344726562,-0.9342703223228455,0.7114160060882568
1782941980407851500,2.1148515625,1.024206280708313,-1.0698527097702026,0.6529120206832886
1782941980417836500,2.12483642578125,0.8326061964035034,-1.354852557182312,0.5089375376701355
1782941980427821600,2.134821533203125,0.660660982131958,-1.735608458518982,0.34120628237724304
1782941980437806600,2.144806640625,0.5555644035339355,-2.1396896839141846,0.24782121181488037
1782941980447791600,2.15479150390625,0.49843916296958923,-2.472374677658081,0.2768058180809021
1782941980457776600,2.164776611328125,0.4460819363594055,-2.6498398780822754,0.42451217770576477
1782941980467761400,2.174761474609375,0.38073521852493286,-2.629826545715332,0.6337070465087891
1782941980477746400,2.184746337890625,0.26281416416168213,-2.4019644260406494,0.8431521654129028
1782941980487731500,2.1947314453125,0.06779910624027252,-1.9925400018692017,1.0077534914016724
1782941980497717500,2.204717529296875,-0.196193128824234,-1.4310282468795776,1.0690757036209106
1782941980507702500,2.21470263671875,-0.4953072667121887,-0.7015749216079712,1.0113619565963745
1782941980517687600,2.2246875,-0.7591085433959961,0.11402429640293121,0.8914200663566589
1782941980527672600,2.234672607421875,-0.9643120169639587,0.8741385340690613,0.7071132659912109
1782941980537657600,2.24465771484375,-1.0964680910110474,1.5157958269119263,0.4853720963001251
1782941980547642400,2.254642333984375,-1.1551094055175781,2.0649235248565674,0.3172381520271301
1782941980557627600,2.264627685546875,-1.1722044944763184,2.5138611793518066,0.25960949063301086
1782941980567612700,2.27461279296875,-1.1846903562545776,2.8427186012268066,0.31514593958854675
1782941980577597700,2.28459765625,-1.185562252998352,3.100651264190674,0.42603251338005066
1782941980587582500,2.29458251953125,-1.1971240043640137,3.2757365703582764,0.5373659133911133
1782941980597567500,2.3045673828125,-1.2104887962341309,3.4902477264404297,0.6375396251678467
1782941980607552500,2.314552490234375,-1.1953614950180054,3.671560049057007,0.7170971632003784
1782941980617537500,2.32453759765625,-1.152052402496338,3.7114908695220947,0.7405372858047485
1782941980627522600,2.3345224609375,-1.066728949546814,3.6659810543060303,0.7421713471412659
1782941980637507600,2.344507568359375,-0.9396059513092041,3.5339930057525635,0.7859904766082764
1782941980647492600,2.35449267578125,-0.7782978415489197,3.2287757396698,0.8882653713226318
1782941980657477600,2.3644775390625,-0.5424495935440063,2.83522891998291,1.012722373008728
1782941980667462700,2.374462646484375,-0.24501009285449982,2.508661985397339,1.1133161783218384
1782941980677448400,2.384448486328125,0.03307638689875603,2.2786293029785156,1.197036623954773
1782941980687433500,2.39443359375,0.22380635142326355,2.148066759109497,1.2774924039840698
1782941980697418500,2.40441845703125,0.3073323965072632,2.0886199474334717,1.350199580192566
1782941980707403500,2.414403564453125,0.32229819893836975,2.0486631393432617,1.3807498216629028
1782941980717388300,2.42438818359375,0.30734720826148987,1.959503173828125,1.3391509056091309
1782941980727374600,2.43437451171875,0.29604339599609375,1.7781915664672852,1.2185803651809692
1782941980737359600,2.444359619140625,0.3017769157886505,1.4995440244674683,1.067897915840149
1782941980747344400,2.454344482421875,0.31134429574012756,1.177422046661377,0.9411377310752869
1782941980757329400,2.464329345703125,0.3135102391242981,0.8360359072685242,0.8526906371116638
1782941980767314400,2.474314453125,0.3087158799171448,0.5101351141929626,0.8139475584030151
1782941980777299500,2.484299560546875,0.3100498616695404,0.15817169845104218,0.7928528785705566
1782941980787284500,2.494284423828125,0.29392117261886597,-0.28844451904296875,0.7719548940658569
1782941980797269200,2.504269287109375,0.23899692296981812,-0.7931936979293823,0.7838197946548462
1782941980807254500,2.514254638671875,0.1779644787311554,-1.3561899662017822,0.8157147765159607
1782941980817239600,2.524239501953125,0.11826279759407043,-2.0215022563934326,0.8062616586685181
1782941980827224600,2.534224609375,0.04725954309105873,-2.8136184215545654,0.7421408891677856
1782941980837209300,2.544209228515625,-0.05219487473368645,-3.6075520515441895,0.6088480353355408
1782941980847194400,2.5541943359375,-0.29873573780059814,-3.437943935394287,0.34759145975112915
1782941980857179400,2.564179443359375,-0.5394508838653564,-2.792538642883301,0.1855226457118988
1782941980867164400,2.574164306640625,-0.6259808540344238,-2.774315118789673,0.03554638847708702
1782941980877149400,2.5841494140625,-0.5520355105400085,-2.0993258953094482,-0.2018429934978485
1782941980887134500,2.594134521484375,-0.33411654829978943,-1.1104339361190796,-0.3253365457057953
1782941980897119500,2.604119384765625,0.08678488433361053,0.04457343369722366,-0.3883573114871979
1782941980907104500,2.6141044921875,0.6877574324607849,1.3579679727554321,-0.46762919425964355
1782941980917089500,2.624089599609375,1.2006760835647583,2.5281286239624023,-0.5706112384796143
1782941980927074600,2.634074462890625,1.197102665901184,3.178981304168701,-0.7214149832725525
1782941980937059300,2.644059326171875,0.4965680241584778,3.245305061340332,-1.0064669847488403
1782941980947045400,2.65404541015625,-0.7063994407653809,2.75260853767395,-1.387626051902771
1782941980957030700,2.66403076171875,-2.066742181777954,1.7775468826293945,-1.729811668395996
1782941980967015400,2.674015380859375,-3.214653253555298,0.5966929197311401,-1.880515217781067
1782941980977000400,2.68400048828125,-4.039938449859619,-0.43578264117240906,-1.8134711980819702
1782941980986985500,2.6939853515625,-4.506068706512451,-0.8595383167266846,-1.6100854873657227
1782941980996970500,2.703970458984375,-4.614134311676025,-0.6998463869094849,-1.4353171586990356
1782941981006955300,2.713955322265625,-4.34525203704834,-0.0681980550289154,-1.4405282735824585
1782941981016940300,2.723940185546875,-3.712522029876709,0.8694157600402832,-1.663468599319458
1782941981026925300,2.73392529296875,-2.8604493141174316,1.8196526765823364,-1.9858661890029907
1782941981036910600,2.74391064453125,-2.0826196670532227,2.567810297012329,-2.233330488204956
1782941981046895600,2.7538955078125,-1.622604489326477,3.0092933177948,-2.26794171333313
1782941981056880400,2.76388037109375,-1.446631908416748,3.0177791118621826,-2.0213630199432373
1782941981066865400,2.773865478515625,-1.4408661127090454,2.604757308959961,-1.5358178615570068
1782941981076850400,2.783850341796875,-1.474528431892395,1.7671688795089722,-0.944333553314209
1782941981086835500,2.79383544921875,-1.5014235973358154,0.48182061314582825,-0.4732753038406372
1782941981096820500,2.803820556640625,-1.508256435394287,-1.1047589778900146,-0.3219741880893707
1782941981106805200,2.81380517578125,-1.4711216688156128,-2.6328799724578857,-0.4365599751472473
1782941981116790500,2.82379052734375,-1.4445630311965942,-3.769345283508301,-0.7116775512695312
1782941981126775600,2.833775634765625,-1.5419472455978394,-3.949711561203003,-1.2666770219802856
1782941981136760600,2.843760498046875,-1.5621578693389893,-3.2815608978271484,-1.6429100036621094
1782941981146745300,2.853745361328125,-1.3237900733947754,-2.201528787612915,-1.804702877998352
1782941981156731400,2.8637314453125,-0.82109534740448,-1.0466686487197876,-1.8501750230789185
1782941981166716400,2.87371630859375,-0.1379711627960205,-0.12957975268363953,-1.676317811012268
1782941981176701400,2.883701416015625,0.5229431390762329,0.4424768090248108,-1.3376703262329102
1782941981186686500,2.8936865234375,1.0126466751098633,0.7293186187744141,-0.8864416480064392
1782941981196671500,2.90367138671875,1.2730660438537598,0.7239861488342285,-0.45428940653800964
1782941981206656500,2.913656494140625,1.260433316230774,0.45120343565940857,-0.23929892480373383
1782941981216641500,2.9236416015625,1.0001641511917114,-0.0024487515911459923,-0.3321915864944458
1782941981226626300,2.933626220703125,0.6727073192596436,-0.44024884700775146,-0.5937054753303528
1782941981236611300,2.943611328125,0.47337770462036133,-0.8099989295005798,-0.7965384721755981
1782941981246596400,2.953596435546875,0.4382210671901703,-1.1492037773132324,-0.7789285778999329
1782941981256581600,2.96358154296875,0.5361322164535522,-1.276543140411377,-0.5235167741775513
1782941981266566400,2.97356640625,0.7428823709487915,-1.0669615268707275,-0.177875816822052
1782941981276551400,2.983551513671875,1.0586029291152954,-0.5990025997161865,0.14304174482822418
1782941981286536400,2.993536376953125,1.4080584049224854,-0.08533339202404022,0.34012311697006226
1782941981296521500,3.003521484375,1.609972357749939,0.21789811551570892,0.37861695885658264
1782941981306506500,3.013506591796875,1.5987112522125244,0.28830844163894653,0.361730694770813
1782941981316491300,3.0234912109375,1.522094964981079,0.23985008895397186,0.40611520409584045
1782941981326476300,3.033476318359375,1.4615334272384644,0.190224751830101,0.550237238407135
1782941981336461600,3.043461669921875,1.3986186981201172,-0.02407928556203842,0.7126599550247192
1782941981346446600,3.053446533203125,1.3441838026046753,-0.27936094999313354,0.8085152506828308
1782941981356432400,3.063432373046875,1.291443943977356,-0.5232846736907959,0.7521047592163086
1782941981366417400,3.07341748046875,1.1887074708938599,-1.089449167251587,0.5074754953384399
1782941981376402400,3.08340234375,1.0941513776779175,-2.017951488494873,0.08459323644638062
1782941981386387500,3.093387451171875,1.1556845903396606,-3.086714267730713,-0.2820291221141815
1782941981396372500,3.10337255859375,1.5109080076217651,-4.114595890045166,-0.3098639249801636
1782941981406357500,3.113357421875,2.10752272605896,-4.6736249923706055,0.12331504374742508
1782941981416342500,3.123342529296875,2.7290902137756348,-4.557346820831299,0.8645473718643188
1782941981426327600,3.13332763671875,3.1904003620147705,-3.853571653366089,1.618372917175293
1782941981436312300,3.143312255859375,3.350485324859619,-2.873898506164551,2.0953452587127686
1782941981446297300,3.15329736328125,3.1832871437072754,-1.959099531173706,2.093363046646118
1782941981456282400,3.163282470703125,2.784195899963379,-1.3101418018341064,1.6491416692733765
1782941981466267400,3.173267333984375,2.213038444519043,-1.014341950416565,0.9773257970809937
1782941981476252700,3.183252685546875,1.6141705513000488,-0.9916840195655823,0.37855929136276245
1782941981486237400,3.193237548828125,1.178682565689087,-1.167565107345581,0.05178811773657799
1782941981496222500,3.203222412109375,0.9527831673622131,-1.4552115201950073,0.02808971330523491
1782941981506207500,3.21320751953125,0.889900267124176,-1.7362141609191895,0.20370705425739288
1782941981516192500,3.223192626953125,0.9582204818725586,-1.9591411352157593,0.44356703758239746
1782941981526177300,3.23317724609375,1.1408072710037231,-2.069584846496582,0.6766003966331482
1782941981536162300,3.243162353515625,1.3350435495376587,-2.0085525512695312,0.8653612732887268
1782941981546147300,3.253147216796875,1.4172217845916748,-1.720100998878479,0.9823039174079895
1782941981556133600,3.263133544921875,1.3839682340621948,-1.2357028722763062,1.0311598777770996
1782941981566118400,3.273118408203125,1.3059844970703125,-0.6462351083755493,1.0422921180725098
1782941981576103400,3.283103515625,1.216144323348999,-0.024546777829527855,1.0526835918426514
1782941981586088400,3.29308837890625,1.1375023126602173,0.6024132966995239,1.0448733568191528
1782941981596073500,3.303073486328125,1.074262022972107,1.1622616052627563,0.9739062190055847
1782941981606058200,3.313058349609375,1.0572669506072998,1.5561509132385254,0.8965145349502563
1782941981616043300,3.323043212890625,1.0685728788375854,1.8688355684280396,0.8202866315841675
1782941981626028500,3.333028564453125,1.0985233783721924,1.9354408979415894,0.7684944868087769
1782941981636013600,3.343013671875,1.1858267784118652,1.869124412536621,0.7413271069526672
1782941981645998600,3.35299853515625,1.32131826877594,1.6932319402694702,0.7569364905357361
1782941981655983400,3.3629833984375,1.4577432870864868,1.3980069160461426,0.792138934135437
1782941981665968400,3.372968505859375,1.5861274003982544,1.1503524780273438,0.9096129536628723
1782941981675953700,3.38295361328125,1.7228782176971436,1.0097001791000366,1.1059917211532593
1782941981685938700,3.392938720703125,1.891858458518982,0.9195561408996582,1.371616005897522
1782941981695923500,3.40292333984375,2.0485570430755615,0.8847782015800476,1.6546709537506104
1782941981705908500,3.412908447265625,2.152952194213867,0.8656035661697388,1.8889840841293335
1782941981715893500,3.4228935546875,2.1980538368225098,0.8504030108451843,2.066948652267456
1782941981725878500,3.43287841796875,2.1669740676879883,0.7790083885192871,2.1758792400360107
1782941981735863800,3.44286376953125,2.0834221839904785,0.6703400611877441,2.2097904682159424
1782941981745849600,3.452849609375,1.9338420629501343,0.5873146057128906,2.1174492835998535
1782941981755834600,3.462834716796875,1.7310795783996582,0.530500590801239,1.9080960750579834
1782941981765819600,3.472819580078125,1.5021945238113403,0.5211015939712524,1.6580601930618286
1782941981775804400,3.482804443359375,1.2870715856552124,0.6197932958602905,1.4298057556152344
1782941981785789400,3.49278955078125,1.1035503149032593,0.8171465992927551,1.2713474035263062
1782941981795774500,3.5027744140625,0.9850547909736633,1.0199100971221924,1.207985281944275
1782941981805759700,3.512759765625,0.9289594292640686,1.2024739980697632,1.2212364673614502
1782941981815744500,3.52274462890625,0.8961561918258667,1.2702807188034058,1.2582672834396362
1782941981825729500,3.5327294921875,0.8616027235984802,1.2179783582687378,1.2896113395690918
1782941981835714600,3.542714599609375,0.7818218469619751,1.1019806861877441,1.3107855319976807
1782941981845699600,3.552699462890625,0.6327483654022217,1.019490361213684,1.2660092115402222
1782941981855684600,3.5626845703125,0.43435806035995483,1.0574042797088623,1.159384846687317
1782941981865669400,3.57266943359375,0.25649893283843994,1.1605486869812012,1.0134327411651611
1782941981875654400,3.582654296875,0.1351887434720993,1.2835421562194824,0.8480914235115051
1782941981885639700,3.5926396484375,0.07486741989850998,1.2798902988433838,0.6892334818840027
1782941981895624700,3.602624755859375,0.05535736307501793,1.1805503368377686,0.5569713115692139
1782941981905609700,3.612609619140625,-0.08882623165845871,1.1994038820266724,0.4753105044364929
1782941981915594500,3.622594482421875,-0.4780677258968353,1.3110982179641724,0.40733492374420166
1782941981925580500,3.63258056640625,-1.0379127264022827,1.5130337476730347,0.2619200050830841
1782941981935565600,3.642565673828125,-1.6307669878005981,1.8359465599060059,-0.05308028310537338
1782941981945550600,3.652550537109375,-2.2361583709716797,2.191399335861206,-0.5070927739143372
1782941981955535600,3.66253564453125,-2.7836790084838867,2.482318878173828,-0.9020416736602783
1782941981965520600,3.672520751953125,-3.1248152256011963,2.7562642097473145,-1.1066770553588867
1782941981975505700,3.682505615234375,-3.157339334487915,3.047778367996216,-1.1540619134902954
1782941981985490700,3.69249072265625,-2.9688594341278076,3.21246337890625,-1.1390187740325928
1782941981995475500,3.702475341796875,-2.734469413757324,3.152355670928955,-1.1188328266143799
1782941982005460500,3.71246044921875,-2.6830689907073975,2.7142598628997803,-1.1179755926132202
1782941982015445500,3.722445556640625,-2.8493950366973877,1.9287595748901367,-1.0973246097564697
1782941982025430800,3.7324306640625,-3.17716908454895,0.8920673131942749,-1.1006733179092407
1782941982035415600,3.74241552734375,-3.597097635269165,-0.31008443236351013,-1.0919346809387207
1782941982045400600,3.752400634765625,-4.026012897491455,-1.4929662942886353,-1.0332621335983276
1782941982055385600,3.762385498046875,-4.511668682098389,-2.495887041091919,-1.0791047811508179
1782941982065370600,3.77237060546875,-5.053736209869385,-3.208078622817993,-1.2346221208572388
1782941982075355600,3.782355712890625,-5.396585464477539,-3.4360971450805664,-1.344079852104187
1782941982085340400,3.79234033203125,-5.399647235870361,-2.9775819778442383,-1.3678685426712036
1782941982095325400,3.802325439453125,-4.946339130401611,-1.9356846809387207,-1.3859878778457642
1782941982105311700,3.812311767578125,-3.9224140644073486,-0.6709288358688354,-1.4498498439788818
1782941982115296500,3.822296630859375,-2.4459495544433594,0.30604198575019836,-1.6005756855010986
1782941982125281500,3.832281494140625,-0.8856256604194641,0.9608721733093262,-1.6826750040054321
1782941982135266600,3.8422666015625,0.2867012917995453,1.5280293226242065,-1.593496322631836
1782941982145251600,3.85225146484375,0.8194577097892761,1.856672763824463,-1.3360285758972168
1782941982155236600,3.862236572265625,0.7849564552307129,1.6570533514022827,-1.0471909046173096
1782941982165221400,3.872221435546875,0.4124975800514221,1.0130928754806519,-0.7040716409683228
1782941982175206700,3.88220654296875,-0.05513298138976097,0.10382390022277832,-0.3475881516933441
1782941982185191700,3.892191650390625,-0.6542380452156067,-0.8826383352279663,-0.17370206117630005
1782941982195176700,3.9021767578125,-1.3724333047866821,-1.4746731519699097,-0.23708955943584442
1782941982205161500,3.912161376953125,-1.9682694673538208,-1.3363237380981445,-0.45501792430877686
1782941982215146500,3.922146484375,-2.1930477619171143,-0.6130422353744507,-0.6150850653648376
1782941982225131500,3.932131591796875,-1.9696860313415527,0.25611427426338196,-0.5458921194076538
1782941982235116500,3.942116455078125,-1.4866727590560913,0.8674612641334534,-0.21248435974121094
1782941982245101600,3.9521015625,-0.9935678839683533,0.987492024898529,0.24548348784446716
1782941982255086600,3.962086669921875,-0.6148780584335327,0.5663083791732788,0.5677249431610107
1782941982265071600,3.972071533203125,-0.4553487300872803,-0.39910250902175903,0.6284836530685425
1782941982275057700,3.9820576171875,-0.4958561956882477,-1.5368934869766235,0.6110410094261169
1782941982285042400,3.99204248046875,-0.6046739816665649,-2.525026321411133,0.7769758105278015
1782941982295027500,4.00202734375,-0.6364662647247314,-3.26141095161438,1.0698484182357788
1782941982305012500,4.012012451171875,-0.47749462723731995,-3.754859209060669,1.3833003044128418
1782941982314997800,4.021997802734375,-0.1515285074710846,-3.878887891769409,1.6792103052139282
1782941982324982500,4.031982421875,0.3311731219291687,-3.6083343029022217,1.8403387069702148
1782941982334967600,4.041967529296875,0.9945249557495117,-3.0372018814086914,1.8023931980133057
1782941982344952600,4.05195263671875,1.7844963073730469,-2.4014365673065186,1.6050102710723877
1782941982354937600,4.0619375,2.4909965991973877,-2.045081853866577,1.3705623149871826
1782941982364922600,4.071922607421875,2.9050357341766357,-1.9022738933563232,1.1539950370788574
1782941982374907400,4.081907470703125,3.0717177391052246,-1.986617088317871,0.9360800385475159
1782941982384892400,4.091892333984375,3.069214105606079,-2.267744541168213,0.7138611078262329
1782941982394877700,4.101877685546875,2.9351375102996826,-2.6101133823394775,0.49340328574180603
1782941982404862700,4.11186279296875,2.73486065864563,-2.940340757369995,0.2497325837612152
1782941982414847500,4.121847412109375,2.5895655155181885,-3.271376132965088,-0.017110833898186684
1782941982424832500,4.13183251953125,2.5535717010498047,-3.6017086505889893,-0.16656741499900818
1782941982434817500,4.141817626953125,2.531738758087158,-3.7846391201019287,-0.2171325832605362
1782941982444803600,4.151803466796875,2.4457364082336426,-3.705631971359253,-0.19203290343284607
1782941982454788600,4.16178857421875,2.278536796569824,-3.4347500801086426,-0.12123728543519974
1782941982464773600,4.171773681640625,2.082601547241211,-3.0757386684417725,-0.08932749927043915
1782941982474758700,4.181758544921875,1.9351423978805542,-2.5986671447753906,-0.06944753229618073
1782941982484743700,4.19174365234375,1.762293815612793,-2.1234586238861084,-0.057424966245889664
1782941982494728400,4.201728515625,1.550458550453186,-1.5472078323364258,-0.09603867679834366
1782941982504713500,4.21171337890625,1.3449292182922363,-0.8364787697792053,-0.2063911110162735
1782941982514698500,4.221698486328125,1.133178949356079,-0.0489807091653347,-0.4013393223285675
1782941982524683500,4.23168359375,0.8613626956939697,0.729293942451477,-0.6859012842178345
1782941982534668800,4.241668701171875,0.531080424785614,1.4588935375213623,-1.0184472799301147
1782941982544653600,4.251653564453125,0.1825474351644516,2.003915786743164,-1.3133584260940552
1782941982554638600,4.261638671875,-0.16837623715400696,2.324296474456787,-1.503086805343628
1782941982564623600,4.27162353515625,-0.4970538318157196,2.5030863285064697,-1.5531728267669678
1782941982574608600,4.281608642578125,-0.7779723405838013,2.544541835784912,-1.4513229131698608
1782941982584593400,4.291593505859375,-0.995951771736145,2.4427478313446045,-1.24113929271698
1782941982594578400,4.301578369140625,-1.149632453918457,2.2008917331695557,-0.9844886064529419
1782941982604564700,4.311564697265625,-1.2199112176895142,1.8232665061950684,-0.7504189014434814
1782941982614549800,4.3215498046875,-1.2895822525024414,1.4116976261138916,-0.5576704740524292
1782941982624534500,4.331534423828125,-1.316591739654541,1.0589009523391724,-0.3852858245372772
1782941982634519600,4.34151953125,-1.2479209899902344,0.8722692131996155,-0.24383841454982758
1782941982644504600,4.351504638671875,-1.0835908651351929,0.926182210445404,-0.1496795266866684
1782941982654489600,4.361489501953125,-0.8766254186630249,1.1665897369384766,-0.12555260956287384
1782941982664474400,4.371474365234375,-0.6823398470878601,1.384277582168579,-0.1589774191379547
1782941982674459400,4.38145947265625,-0.5261023044586182,1.5550611019134521,-0.21909135580062866
1782941982684444700,4.391444580078125,-0.4227525293827057,1.6381056308746338,-0.292479544878006
1782941982694429700,4.4014296875,-0.3710286319255829,1.5979970693588257,-0.371931254863739
1782941982704414700,4.411414794921875,-0.3493680953979492,1.4892553091049194,-0.4211733639240265
1782941982714399500,4.4213994140625,-0.343815416097641,1.322231411933899,-0.4283689558506012
1782941982724384500,4.431384521484375,-0.3324304521083832,1.114045262336731,-0.38723820447921753
1782941982734369500,4.44136962890625,-0.31454014778137207,0.8818588852882385,-0.28832998871803284
1782941982744354600,4.4513544921875,-0.2954578399658203,0.6930354237556458,-0.13517546653747559
1782941982754339600,4.461339599609375,-0.2713645100593567,0.5341988801956177,0.03617685288190842
1782941982764324600,4.47132470703125,-0.2427307665348053,0.377075731754303,0.1846209615468979
1782941982774310700,4.481310546875,-0.21392522752285004,0.26210707426071167,0.30990031361579895
1782941982784295700,4.491295654296875,-0.18857470154762268,0.19238236546516418,0.40487349033355713
1782941982794280400,4.501280517578125,-0.16469280421733856,0.11477519571781158,0.4717230796813965
1782941982804265500,4.511265380859375,-0.12203343957662582,0.011124245822429657,0.49108853936195374
1782941982814250500,4.52125048828125,-0.08155710995197296,-0.14069536328315735,0.4709443747997284
1782941982824235800,4.53123583984375,-0.056117378175258636,-0.318361759185791,0.4389747083187103
1782941982834220500,4.541220458984375,-0.03934825211763382,-0.3277089297771454,0.37596166133880615
1782941982844205600,4.55120556640625,-0.08013676851987839,-0.20078560709953308,0.2994171977043152
1782941982854190600,4.561190673828125,-0.11464467644691467,-0.18929699063301086,0.34001150727272034
1782941982864175600,4.571175537109375,-0.1444813460111618,-0.23018606007099152,0.3747578561306
1782941982874160600,4.58116064453125,-0.1458352953195572,-0.1835181564092636,0.3839079439640045
1782941982884145400,4.5911455078125,-0.05932604521512985,0.005824863910675049,0.40125221014022827
1782941982894130400,4.60113037109375,0.07105619460344315,0.26232242584228516,0.3840697407722473
1782941982904115700,4.61111572265625,0.17805340886116028,0.5875053405761719,0.3459398150444031
1782941982914100700,4.621100830078125,0.24242201447486877,0.9824340343475342,0.3393825590610504
1782941982924085500,4.63108544921875,0.30705350637435913,1.4162484407424927,0.37867259979248047
1782941982934071600,4.641071533203125,0.4170910716056824,1.8239121437072754,0.44163718819618225
1782941982944056600,4.651056640625,0.47368305921554565,2.1240615844726562,0.39923959970474243
1782941982954041600,4.66104150390625,0.2625431418418884,1.9773578643798828,0.11329971253871918
1782941982964026400,4.6710263671875,-0.18538306653499603,1.4547326564788818,-0.2910439074039459
1782941982974011600,4.68101171875,-0.670601487159729,0.8656662106513977,-0.42013052105903625
1782941982983996700,4.69099658203125,-1.1932733058929443,0.2828972637653351,-0.1707826554775238
1782941982993981700,4.700981689453125,-1.7055048942565918,-0.3008580505847931,0.1960214376449585
1782941983003966500,4.710966552734375,-2.01552677154541,-0.6543265581130981,0.43552157282829285
1782941983013951500,4.720951416015625,-2.0628509521484375,-0.4037012755870819,0.5355589985847473
1782941983023936500,4.7309365234375,-1.965540885925293,0.5759755373001099,0.5907567739486694
1782941983033921500,4.740921630859375,-1.8221852779388428,1.854537010192871,0.5344306826591492
1782941983043906600,4.750906494140625,-1.8080846071243286,2.566185235977173,0.2871756851673126
1782941983053891600,4.7608916015625,-1.7411493062973022,2.2490034103393555,-0.06248726323246956
1782941983063876600,4.770876708984375,-1.4023315906524658,0.9765259027481079,-0.251550555229187
1782941983073861600,4.780861572265625,-0.8858115077018738,-0.7535402774810791,-0.1274389922618866
1782941983083846700,4.7908466796875,-0.31504130363464355,-2.2210662364959717,0.2655733823776245
1782941983093832400,4.80083251953125,0.24200358986854553,-3.0818867683410645,0.8164250254631042
1782941983103817500,4.8108173828125,0.7301849126815796,-3.3380844593048096,1.3362524509429932
1782941983113802800,4.820802734375,1.0248934030532837,-3.1822636127471924,1.6536612510681152
1782941983123787500,4.83078759765625,1.083223819732666,-2.854191780090332,1.6326369047164917
1782941983133772500,4.8407724609375,1.0183961391448975,-2.511613368988037,1.2589077949523926
1782941983143757600,4.850757568359375,0.9950626492500305,-2.072364568710327,0.7428247332572937
1782941983153742600,4.86074267578125,1.071978211402893,-1.5895107984542847,0.3739609718322754
1782941983163727600,4.8707275390625,1.1775444746017456,-1.1947572231292725,0.26596909761428833
1782941983173712400,4.88071240234375,1.2347817420959473,-0.8520243763923645,0.3752953112125397
1782941983183697400,4.890697509765625,1.2253923416137695,-0.5718898773193359,0.5041655898094177
1782941983193682700,4.9006826171875,1.148269772529602,-0.42493072152137756,0.4443880021572113
1782941983203667700,4.910667724609375,1.0123546123504639,-0.49429967999458313,0.14784616231918335
1782941983213652700,4.92065283203125,0.7830262184143066,-0.7228521704673767,-0.29436373710632324
1782941983223637500,4.930637451171875,0.5046098232269287,-0.9985764026641846,-0.7172966003417969
1782941983233622500,4.94062255859375,0.24402247369289398,-1.2029547691345215,-0.9817666411399841
1782941983243607600,4.950607666015625,0.03838467225432396,-1.27128267288208,-1.0456053018569946
1782941983253593600,4.960593505859375,-0.06786106526851654,-1.1838548183441162,-0.9266139268875122
1782941983263578600,4.97057861328125,-0.08079320192337036,-1.0431113243103027,-0.7340064644813538
1782941983273563600,4.980563720703125,0.0010563964024186134,-0.9877346754074097,-0.6448904871940613
1782941983283548700,4.990548583984375,0.1214185357093811,-0.8873178958892822,-0.6066054701805115
1782941983293533400,5.000533447265625,0.20807087421417236,-0.7751855254173279,-0.5244088768959045
1782941983303518500,5.0105185546875,0.322437584400177,-0.5245019793510437,-0.34635448455810547
1782941983313503500,5.02050341796875,0.34157800674438477,-0.2931209206581116,-0.08106236159801483
1782941983323488500,5.030488525390625,0.3256588578224182,-0.18612666428089142,0.2586745619773865
1782941983333473800,5.040473876953125,0.32032349705696106,-0.02578786015510559,0.6095892190933228
1782941983343458600,5.05045849609375,0.3123973309993744,0.05436377972364426,0.9112820625305176
1782941983353443600,5.060443603515625,0.30832988023757935,0.027386758476495743,1.1369578838348389
1782941983363428600,5.0704287109375,0.3490605056285858,-0.07257580757141113,1.3048827648162842
1782941983373413600,5.08041357421875,0.45001932978630066,-0.2165718674659729,1.4466183185577393
1782941983383398700,5.090398681640625,0.5725885033607483,-0.3810565769672394,1.5812244415283203
1782941983393383400,5.100383544921875,0.6690250039100647,-0.5591810345649719,1.7192531824111938
1782941983403369700,5.11036962890625,0.7092710733413696,-0.6518628001213074,1.8540570735931396
1782941983413354800,5.120354736328125,0.667927086353302,-0.5435666441917419,1.9567395448684692
1782941983423339500,5.130339599609375,0.561263918876648,-0.23443636298179626,2.019033193588257
1782941983433324500,5.140324462890625,0.42229515314102173,0.1303250938653946,2.0406811237335205
1782941983443309600,5.1503095703125,0.28815051913261414,0.4653550386428833,2.035503387451172
1782941983453294600,5.160294677734375,0.16664883494377136,0.7234925627708435,2.00954008102417
1782941983463279400,5.170279296875,0.04363285377621651,0.9338877201080322,1.954552173614502
1782941983473264400,5.180264404296875,-0.11192025244235992,1.109650731086731,1.8653035163879395
1782941983483249700,5.190249755859375,-0.27590081095695496,1.2415194511413574,1.7449175119400024
1782941983493234700,5.200234619140625,-0.42025506496429443,1.2809092998504639,1.610059380531311
1782941983503219700,5.2102197265625,-0.5235655903816223,1.2217949628829956,1.477983832359314
1782941983513204500,5.22020458984375,-0.5768099427223206,1.138681411743164,1.3863869905471802
1782941983523189500,5.230189453125,-0.6117711663246155,1.0749826431274414,1.364119052886963
1782941983533174500,5.240174560546875,-0.629518449306488,1.0068330764770508,1.4047222137451172
1782941983543159600,5.25015966796875,-0.6158740520477295,0.934645414352417,1.4930272102355957
1782941983553145600,5.2601455078125,-0.5790097713470459,0.8520383834838867,1.6073498725891113
1782941983563130600,5.270130615234375,-0.5289662480354309,0.7677651047706604,1.7442409992218018
1782941983573115600,5.28011572265625,-0.4722239077091217,0.6367117762565613,1.8931447267532349
1782941983583100700,5.2901005859375,-0.41980358958244324,0.42343103885650635,2.015709161758423
1782941983593085400,5.30008544921875,-0.38208311796188354,0.1794428676366806,2.0782923698425293
1782941983603070500,5.310070556640625,-0.3451993465423584,-0.041050996631383896,2.0768277645111084
1782941983613055500,5.320055419921875,-0.3044641613960266,-0.2539432942867279,2.0446741580963135
1782941983623040800,5.330040771484375,-0.25748947262763977,-0.4984676241874695,1.9974764585494995
1782941983633025500,5.340025634765625,-0.1934148520231247,-0.7916147708892822,1.9534945487976074
1782941983643010600,5.350010498046875,-0.13524511456489563,-1.1249284744262695,1.9008249044418335
1782941983652995600,5.35999560546875,-0.09267714619636536,-1.5333189964294434,1.847241759300232
1782941983662980600,5.369980712890625,-0.10256659239530563,-2.0560526847839355,1.7259043455123901
1782941983672965600,5.379965576171875,-0.2623395025730133,-2.670419931411743,1.317175269126892
1782941983682950400,5.389950439453125,-0.35900232195854187,-3.2564010620117188,0.655198872089386
1782941983692935400,5.399935302734375,-0.0555737242102623,-3.3077855110168457,-0.143149733543396
1782941983702921500,5.40992138671875,0.5178844332695007,-2.861177921295166,-0.9302356243133545
1782941983712906200,5.41990625,1.065032958984375,-2.5741655826568604,-1.5078762769699097
1782941983722891300,5.429891357421875,1.456666111946106,-2.270496368408203,-1.796817421913147
1782941983732876500,5.43987646484375,1.5996792316436768,-1.9144028425216675,-1.891564965248108
1782941983742861600,5.449861572265625,1.2592660188674927,-1.444042444229126,-2.005552053451538
1782941983752846600,5.4598466796875,0.4810441732406616,-0.8785739541053772,-2.4215853214263916
1782941983762831400,5.469831298828125,-0.4905693233013153,-0.5087547898292542,-3.2154736518859863
1782941983772816400,5.47981640625,-1.457250714302063,-0.6132340431213379,-4.132044315338135
1782941983782801400,5.489801513671875,-2.445148468017578,-0.9930770397186279,-4.741673946380615
1782941983792786400,5.499786376953125,-3.4728145599365234,-1.2413249015808105,-4.910462856292725
1782941983802771500,5.509771484375,-4.435085296630859,-1.1622862815856934,-4.878079414367676
1782941983812756500,5.519756591796875,-5.178507328033447,-0.6450525522232056,-4.816307067871094
1782941983822741500,5.529741455078125,-5.621650218963623,0.13738863170146942,-4.712153434753418
1782941983832726500,5.5397265625,-5.576811790466309,0.9221143126487732,-4.5424017906188965
1782941983842711600,5.549711669921875,-5.003741264343262,1.6673474311828613,-4.352484703063965
1782941983852697300,5.559697265625,-4.122628688812256,2.3412835597991943,-4.147550582885742
1782941983862682400,5.569682373046875,-3.1679563522338867,2.8996753692626953,-3.904716968536377
1782941983872667600,5.579667724609375,-2.267578601837158,3.1118850708007812,-3.610275983810425
1782941983882652400,5.58965234375,-1.5113328695297241,2.897827625274658,-3.2601571083068848
1782941983892637400,5.599637451171875,-0.9183171987533569,2.2914323806762695,-2.842538833618164
1782941983902622500,5.60962255859375,-0.4987427890300751,1.3058526515960693,-2.3807435035705566
1782941983912607500,5.619607421875,-0.273733913898468,0.24434193968772888,-1.934456467628479
1782941983922592500,5.629592529296875,-0.26948702335357666,-0.640410304069519,-1.5576703548431396
1782941983932577300,5.639577392578125,-0.42394477128982544,-1.3687206506729126,-1.2630480527877808
1782941983942562300,5.649562255859375,-0.5662485957145691,-1.9375858306884766,-1.0213475227355957
1782941983952547600,5.659547607421875,-0.6495586633682251,-2.2246055603027344,-0.8017318248748779
1782941983962532600,5.66953271484375,-0.7175297141075134,-2.1665635108947754,-0.5670687556266785
1782941983972517400,5.679517333984375,-0.7534826397895813,-1.8095364570617676,-0.27597832679748535
1782941983982502400,5.68950244140625,-0.7272663116455078,-1.1482477188110352,0.053155817091464996
1782941983992488400,5.699488525390625,-0.6561548709869385,-0.2546223998069763,0.3399377763271332
1782941984002473500,5.709473388671875,-0.5508421659469604,0.5696877241134644,0.5699622631072998
1782941984012458200,5.719458251953125,-0.4332486689090729,1.2284796237945557,0.7109124660491943
1782941984022443500,5.729443603515625,-0.33208101987838745,1.6765058040618896,0.7369120717048645
1782941984032428500,5.739428466796875,-0.2693265676498413,1.843992829322815,0.668746829032898
1782941984042413600,5.74941357421875,-0.28389328718185425,1.76192307472229,0.508432924747467
1782941984052398300,5.7593984375,-0.37666022777557373,1.5049288272857666,0.27810120582580566
1782941984062383400,5.76938330078125,-0.4818405508995056,1.1376488208770752,0.025847461074590683
1782941984072368400,5.779368408203125,-0.5844569206237793,0.6989567279815674,-0.1866072714328766
1782941984082353400,5.789353515625,-0.6608038544654846,0.280445396900177,-0.317586213350296
1782941984092338400,5.79933837890625,-0.7137083411216736,-0.03216364234685898,-0.35604360699653625
1782941984102323500,5.809323486328125,-0.7639840245246887,-0.2113511562347412,-0.32012927532196045
1782941984112308500,5.81930859375,-0.8045269250869751,-0.2708541750907898,-0.23251792788505554
1782941984122293500,5.82929345703125,-0.8206016421318054,-0.16686414182186127,-0.14393861591815948
1782941984132278500,5.839278564453125,-0.8221665024757385,0.04911075904965401,-0.0943087488412857
1782941984142264300,5.849264404296875,-0.7615166306495667,0.31030356884002686,-0.07305828481912613
1782941984152249300,5.859249267578125,-0.6396258473396301,0.556340754032135,-0.07164707779884338
1782941984162234600,5.869234619140625,-0.4935035705566406,0.811177134513855,-0.0601905882358551
1782941984172219400,5.879219482421875,-0.3756408393383026,1.030503273010254,-0.04240572825074196
1782941984182204400,5.889204345703125,-0.304144948720932,1.1483242511749268,-0.014033319428563118
1782941984192189400,5.899189453125,-0.2639376223087311,1.172750473022461,0.027922119945287704
1782941984202174500,5.909174560546875,-0.22615212202072144,1.101217269897461,0.05535009503364563
1782941984212159500,5.919159423828125,-0.17907994985580444,0.9259753823280334,0.0757371261715889
1782941984222144300,5.929144287109375,-0.12550662457942963,0.6251558661460876,0.11265144497156143
1782941984232129300,5.93912939453125,-0.05423936992883682,0.3262685537338257,0.1764509230852127
1782941984242114600,5.949114501953125,0.011642017401754856,0.08725212514400482,0.262369841337204
1782941984252099600,5.959099609375,0.04568014666438103,-0.11581283807754517,0.3707495927810669
1782941984262084600,5.969084716796875,0.02775532938539982,-0.30231013894081116,0.4931724965572357
1782941984272069400,5.9790693359375,-0.047173772007226944,-0.48423731327056885,0.6006736755371094
1782941984282055400,5.989055419921875,-0.1380794197320938,-0.6730834245681763,0.6741777658462524
1782941984292040400,5.99904052734375,-0.2053127884864807,-0.8674817085266113,0.696994423866272
1782941984302025500,6.009025390625,-0.24802258610725403,-1.0277810096740723,0.6769569516181946
1782941984312010500,6.019010498046875,-0.26019322872161865,-1.0999428033828735,0.6305596232414246
1782941984321995500,6.02899560546875,-0.26400840282440186,-1.076483964920044,0.538996696472168
1782941984331980500,6.03898046875,-0.2644323706626892,-0.9727543592453003,0.4099406898021698
1782941984341965300,6.04896533203125,-0.26004546880722046,-0.7728661298751831,0.24146050214767456
1782941984351950300,6.058950439453125,-0.260490745306015,-0.4854508340358734,0.047368261963129044
1782941984361935400,6.068935302734375,-0.2617235481739044,-0.17730413377285004,-0.1352171003818512
1782941984371920400,6.07892041015625,-0.2592816948890686,0.08820583671331406,-0.2786054313182831
1782941984381905700,6.08890576171875,-0.2613501250743866,0.2860635221004486,-0.369500070810318
1782941984391890400,6.098890380859375,-0.26637470722198486,0.42793145775794983,-0.4131183624267578
1782941984401875500,6.10887548828125,-0.26403293013572693,0.5095007419586182,-0.42166024446487427
1782941984411860500,6.118860595703125,-0.25449854135513306,0.531480073928833,-0.3996652066707611
1782941984421845500,6.128845458984375,-0.23804591596126556,0.5393990874290466,-0.35918936133384705
1782941984431831300,6.138831298828125,-0.23429565131664276,0.5311232805252075,-0.3040955066680908
1782941984441816300,6.14881640625,-0.24964262545108795,0.4891429841518402,-0.2528143525123596
1782941984451801600,6.158801513671875,-0.2755618393421173,0.3870003819465637,-0.21254363656044006
1782941984461786600,6.16878662109375,-0.2989310026168823,0.23516927659511566,-0.19168317317962646
1782941984471771400,6.178771484375,-0.3170980215072632,0.04020591080188751,-0.20576012134552002
1782941984481756400,6.18875634765625,-0.3353722095489502,-0.18256822228431702,-0.2505090832710266
1782941984491741400,6.198741455078125,-0.3426429033279419,-0.4085158407688141,-0.29573914408683777
1782941984501726500,6.2087265625,-0.34761741757392883,-0.5512170791625977,-0.32365646958351135
1782941984511711200,6.218711181640625,-0.35391128063201904,-0.6215101480484009,-0.3013128340244293
1782941984521696300,6.2286962890625,-0.3513679802417755,-0.6251268982887268,-0.22352689504623413
1782941984531681500,6.238681640625,-0.3338712751865387,-0.5356305837631226,-0.10851483792066574
1782941984541666600,6.24866650390625,-0.3174087405204773,-0.4155535101890564,0.01972195878624916
1782941984551651600,6.258651611328125,-0.3097414970397949,-0.29288432002067566,0.13475480675697327
1782941984561637400,6.268637451171875,-0.3067077398300171,-0.193282812833786,0.21638844907283783
1782941984571622400,6.278622314453125,-0.3057663142681122,-0.09988602995872498,0.2477937787771225
1782941984581607400,6.288607421875,-0.3354274034500122,-0.026919547468423843,0.22046475112438202
1782941984591592400,6.298592529296875,-0.37678763270378113,-0.011669754981994629,0.15930180251598358
1782941984601577500,6.308577392578125,-0.39604777097702026,-0.08973334729671478,0.09876354038715363
1782941984611562500,6.3185625,-0.3714393675327301,-0.18889881670475006,0.07009727507829666
1782941984621547500,6.328547607421875,-0.28759241104125977,-0.14190447330474854,0.04852498322725296
1782941984631532500,6.338532470703125,-0.15686607360839844,-0.0056201377883553505,-0.010211033746600151
1782941984641517300,6.348517333984375,-0.03598776459693909,-0.10279255360364914,-0.07288137078285217
1782941984651502300,6.35850244140625,0.041826337575912476,-0.2778610289096832,-0.1189492717385292
1782941984661487400,6.3684873046875,0.07617632299661636,-0.4239354133605957,-0.14425861835479736
1782941984671472600,6.37847265625,0.05317647010087967,-0.46985071897506714,-0.1490432620048523
1782941984681460700,6.388460693359375,-0.027220593765378,-0.4483272135257721,-0.1365501582622528
1782941984691445500,6.398445556640625,-0.12684492766857147,-0.3983692228794098,-0.109613336622715
1782941984701431800,6.408431884765625,-0.20174483954906464,-0.32988807559013367,-0.09863873571157455
1782941984711416800,6.418416748046875,-0.2258341908454895,-0.2723723351955414,-0.10355519503355026
1782941984721401600,6.428401611328125,-0.20940251648426056,-0.23992107808589935,-0.11304814368486404
1782941984731386600,6.43838671875,-0.17439287900924683,-0.18087507784366608,-0.1340799182653427
1782941984741371600,6.44837158203125,-0.14113640785217285,-0.13879330456256866,-0.1482880562543869
1782941984751356700,6.458356689453125,-0.11736290901899338,-0.10435915738344193,-0.1455114483833313
1782941984761341700,6.468341796875,-0.10156337916851044,-0.10870109498500824,-0.10843570530414581
1782941984771326700,6.47832666015625,-0.10775203257799149,-0.1295001208782196,-0.045806944370269775
1782941984781311700,6.488311767578125,-0.12441975623369217,-0.1194954663515091,0.04333911091089249
1782941984791296800,6.498296875,-0.13685007393360138,-0.09315600246191025,0.15075372159481049
1782941984801281800,6.50828173828125,-0.14629855751991272,-0.06672323495149612,0.2591727375984192
1782941984811266600,6.5182666015625,-0.1520126461982727,-0.02968878671526909,0.3516739010810852
1782941984821251600,6.52825146484375,-0.1747051477432251,0.014252765104174614,0.41319942474365234
1782941984831236600,6.538236572265625,-0.2154962420463562,0.020080827176570892,0.44880375266075134
1782941984841222700,6.54822265625,-0.26232004165649414,0.016477327793836594,0.46380290389060974
1782941984851207700,6.558207763671875,-0.3094252347946167,0.031059999018907547,0.4666762053966522
1782941984861192700,6.568192626953125,-0.35007187724113464,0.0637824609875679,0.458603173494339
1782941984871177700,6.578177734375,-0.3909042775630951,0.0994911938905716,0.4312533140182495
1782941984881162800,6.588162841796875,-0.43025267124176025,0.12989553809165955,0.385675311088562
1782941984891147500,6.5981474609375,-0.46116480231285095,0.12312338501214981,0.34314408898353577
1782941984901132500,6.608132568359375,-0.4817979335784912,0.06454718112945557,0.3077068328857422
1782941984911117800,6.618117919921875,-0.49963846802711487,-0.023194923996925354,0.29277661442756653
1782941984921102800,6.628102783203125,-0.5200550556182861,-0.13272786140441895,0.3051503896713257
1782941984931087600,6.638087646484375,-0.5482896566390991,-0.23622149229049683,0.3285076320171356
1782941984941072600,6.64807275390625,-0.5798128247261047,-0.3298269510269165,0.3476438820362091
1782941984951057700,6.6580576171875,-0.6148712038993835,-0.37125083804130554,0.35117894411087036
1782941984961042700,6.668042724609375,-0.6401639580726624,-0.3356406092643738,0.3473362326622009
1782941984971028700,6.67802880859375,-0.6589144468307495,-0.24324063956737518,0.33688172698020935
1782941984981013800,6.688013671875,-0.6674663424491882,-0.11602549254894257,0.3380548059940338
1782941984990998800,6.697998779296875,-0.6669052243232727,0.03352564945816994,0.34644830226898193
1782941985000983800,6.70798388671875,-0.6491515040397644,0.18190985918045044,0.32199984788894653
1782941985010968600,6.717968505859375,-0.6381210088729858,0.30534499883651733,0.26448410749435425
1782941985020953600,6.72795361328125,-0.6417617201805115,0.40667450428009033,0.19262272119522095
1782941985030938600,6.737938720703125,-0.6792821884155273,0.4864841103553772,0.10971744358539581
1782941985040923600,6.747923583984375,-0.7457560896873474,0.5803369879722595,0.026455972343683243
1782941985050909000,6.757908935546875,-0.8182750344276428,0.6791269183158875,-0.04775487631559372
1782941985060893700,6.767893798828125,-0.8782554864883423,0.7149742841720581,-0.10117712616920471
1782941985070878700,6.777878662109375,-0.9100453853607178,0.6975327134132385,-0.12350932508707047
1782941985080863700,6.78786376953125,-0.9221286177635193,0.6617501974105835,-0.11047345399856567
1782941985090848800,6.797848876953125,-0.9282850027084351,0.6351444125175476,-0.06427346169948578
1782941985100833500,6.80783349609375,-0.9319313764572144,0.6296010613441467,-0.00989287719130516
1782941985110819600,6.817819580078125,-0.9391946196556091,0.6314221024513245,0.04358446225523949
1782941985120804900,6.827804931640625,-0.9530630111694336,0.6254242062568665,0.09530501067638397
1782941985130789600,6.83778955078125,-0.968121349811554,0.5962029099464417,0.13062040507793427
1782941985140774700,6.847774658203125,-0.9848512411117554,0.5410270690917969,0.15134097635746002
1782941985150759700,6.857759765625,-0.9975699186325073,0.4445471167564392,0.13856153190135956
1782941985160744700,6.86774462890625,-1.005663514137268,0.26861047744750977,0.11334556341171265
1782941985170729700,6.877729736328125,-0.9991999864578247,0.02554379403591156,0.08851638436317444
1782941985180714500,6.887714599609375,-0.9676749110221863,-0.19008739292621613,0.06334006041288376
1782941985190699500,6.897699462890625,-0.9153805375099182,-0.3387458324432373,0.0542251281440258
1782941985200684800,6.907684814453125,-0.8649128079414368,-0.3891994059085846,0.050149012356996536
1782941985210669800,6.917669921875,-0.8369855284690857,-0.37123772501945496,0.05370406433939934
1782941985220654800,6.92765478515625,-0.8239699006080627,-0.3256957232952118,0.0636386126279831
1782941985230639600,6.9376396484375,-0.8208566308021545,-0.2802824378013611,0.07776348292827606
1782941985240625700,6.947625732421875,-0.8077713847160339,-0.2249220460653305,0.09296397119760513
1782941985250610700,6.957610595703125,-0.7919132709503174,-0.16584114730358124,0.1053420752286911
1782941985260595700,6.967595703125,-0.7661088705062866,-0.11137053370475769,0.10299515724182129
1782941985270580700,6.977580810546875,-0.7158699631690979,-0.05361909046769142,0.07927091419696808
1782941985280565800,6.987565673828125,-0.6347797513008118,0.01624821126461029,0.03583159297704697
1782941985290550800,6.99755078125,-0.5251216888427734,0.09388095140457153,-0.012199848890304565
1782941985300535600,7.00753564453125,-0.4270075559616089,0.1640934944152832,-0.0437549464404583
1782941985310520600,7.0175205078125,-0.35293254256248474,0.1954314410686493,-0.055174052715301514
1782941985320505600,7.027505615234375,-0.3010384738445282,0.18883062899112701,-0.036568306386470795
1782941985330490600,7.03749072265625,-0.2595035433769226,0.1585443615913391,0.0021111792884767056
1782941985340476000,7.047475830078125,-0.22275595366954803,0.11960023641586304,0.0642615258693695
1782941985350460700,7.057460693359375,-0.18058133125305176,0.06640519201755524,0.12435442209243774
1782941985360445700,7.06744580078125,-0.13647186756134033,0.0324615016579628,0.17835935950279236
1782941985370431700,7.077431640625,-0.09616066515445709,0.028998862951993942,0.22068685293197632
1782941985380416500,7.08741650390625,-0.07035363465547562,0.04793807119131088,0.24651409685611725
1782941985390401500,7.097401611328125,-0.040499601513147354,0.06366963684558868,0.2582229673862457
1782941985400386800,7.10738671875,-0.004951505921781063,0.05949313938617706,0.26673927903175354
1782941985410371800,7.117371826171875,0.03782285749912262,0.040249139070510864,0.2757788300514221
1782941985420356900,7.12735693359375,0.07500407099723816,0.008859451860189438,0.2893266975879669
1782941985430341600,7.137341552734375,0.09301449358463287,-0.024259351193904877,0.2983345687389374
1782941985440326700,7.14732666015625,0.09451334178447723,-0.05833936482667923,0.3073580265045166
1782941985450311700,7.157311767578125,0.08553662896156311,-0.0991070345044136,0.3085833191871643
1782941985460296700,7.167296630859375,0.07957898825407028,-0.14285404980182648,0.2951839864253998
1782941985470281700,7.17728173828125,0.060593847185373306,-0.16530582308769226,0.2594486474990845
1782941985480266800,7.187266845703125,0.016293272376060486,-0.1953141987323761,0.21753628551959991
1782941985490251800,7.197251708984375,-0.04414583742618561,-0.23211216926574707,0.18328671157360077
1782941985500237800,7.20723779296875,-0.10444959253072739,-0.2792505919933319,0.17093075811862946
1782941985510222600,7.21722265625,-0.15672904253005981,-0.34035736322402954,0.17494067549705505
1782941985520207600,7.22720751953125,-0.19128993153572083,-0.4069020450115204,0.20704089105129242
1782941985530192600,7.237192626953125,-0.1937754601240158,-0.46872201561927795,0.2599208652973175
1782941985540177700,7.247177734375,-0.1764342039823532,-0.5005082488059998,0.32859036326408386
1782941985550162700,7.25716259765625,-0.15211820602416992,-0.4918034076690674,0.4064156711101532
1782941985560147700,7.267147705078125,-0.1384378969669342,-0.43645143508911133,0.49212267994880676
1782941985570132700,7.2771328125,-0.1397969126701355,-0.3347652852535248,0.5633350610733032
1782941985580117800,7.28711767578125,-0.1426704078912735,-0.20630420744419098,0.6188857555389404
1782941985590102800,7.297102783203125,-0.1368681788444519,-0.07728550583124161,0.6403108835220337
1782941985600087600,7.307087646484375,-0.11212006956338882,0.03322010114789009,0.6278650760650635
1782941985610072600,7.317072509765625,-0.08777132630348206,0.12197393923997879,0.6001495122909546
1782941985620057600,7.3270576171875,-0.06383462995290756,0.16712406277656555,0.5542198419570923
1782941985630043600,7.337043701171875,-0.05996931716799736,0.17116832733154297,0.49659088253974915
1782941985640028700,7.347028564453125,-0.06982406228780746,0.14373449981212616,0.4355553090572357
1782941985650013700,7.357013671875,-0.10270185023546219,0.11395024508237839,0.37187647819519043
1782941985659998700,7.366998779296875,-0.1569068729877472,0.07016124576330185,0.30869561433792114
1782941985669983700,7.376983642578125,-0.22833044826984406,0.02231382578611374,0.23695218563079834
1782941985679965000,7.38696484375,-0.3049091100692749,-0.030861280858516693,0.12922737002372742
1782941985689950000,7.396949951171875,-0.3700729310512543,-0.08269332349300385,0.00007205130532383919
1782941985699935000,7.40693505859375,-0.40352755784988403,-0.10997603833675385,-0.12683722376823425
1782941985709920300,7.416920166015625,-0.4161109924316406,-0.13527952134609222,-0.20920878648757935
1782941985719905000,7.426905029296875,-0.42448726296424866,-0.15031704306602478,-0.2422366887331009
1782941985729890000,7.43689013671875,-0.4340709149837494,-0.16468319296836853,-0.23349937796592712
1782941985739875000,7.446875,-0.44228947162628174,-0.16905900835990906,-0.19710814952850342
1782941985749861000,7.456861083984375,-0.4462067186832428,-0.15511362254619598,-0.1512724906206131
1782941985759846000,7.466845947265625,-0.43428221344947815,-0.13467909395694733,-0.09879836440086365
1782941985769831200,7.4768310546875,-0.3969718813896179,-0.09946916997432709,-0.03890201076865196
1782941985779816200,7.486816162109375,-0.35392841696739197,-0.060529932379722595,0.03086521103978157
1782941985789801200,7.49680126953125,-0.31280094385147095,-0.027907542884349823,0.11004684865474701
1782941985799786000,7.506785888671875,-0.26722589135169983,-0.00030667614191770554,0.1580573171377182
1782941985809771000,7.51677099609375,-0.2164228856563568,0.03140890970826149,0.15199382603168488
1782941985819756000,7.526756103515625,-0.15977564454078674,0.06955781579017639,0.07876449078321457
1782941985829741000,7.536740966796875,-0.10596860945224762,0.11207278817892075,-0.052668094635009766
1782941985839726000,7.54672607421875,-0.034834012389183044,0.17155462503433228,-0.23124751448631287
1782941985849711000,7.556711181640625,0.011509781703352928,0.29721003770828247,-0.3681606352329254
1782941985859696000,7.566696044921875,-0.00926884077489376,0.5008103251457214,-0.3244693875312805
1782941985869681200,7.57668115234375,-0.05722970888018608,0.32234230637550354,-0.3247610032558441
1782941985879667000,7.5866669921875,-0.12356770038604736,0.024052277207374573,-0.3644752502441406
1782941985889652000,7.59665185546875,-0.19849812984466553,-0.1816215217113495,-0.3942051827907562
1782941985899637000,7.606636962890625,-0.236995130777359,-0.23415681719779968,-0.39984363317489624
1782941985909622000,7.6166220703125,-0.2398761361837387,-0.1591496765613556,-0.36676502227783203
1782941985919607000,7.62660693359375,-0.23501524329185486,-0.0636778175830841,-0.3154166638851166
