time,seconds_elapsed,z,y,x
1782941996384275200,0.075275146484375,-0.32543593645095825,-0.4132484197616577,0.2586265504360199
1782941996394260200,0.08526025390625,-0.32695472240448,-0.4031353294849396,0.25563767552375793
1782941996404245200,0.095245361328125,-0.2994454503059387,-0.3571288585662842,0.22142863273620605
1782941996414230000,0.10522998046875,-0.25515735149383545,-0.27559617161750793,0.17718766629695892
1782941996424215000,0.115215087890625,-0.20352724194526672,-0.1497473120689392,0.13918060064315796
1782941996434200000,0.125199951171875,-0.14214164018630981,0.006612477824091911,0.11010980606079102
1782941996444185000,0.13518505859375,-0.0838477835059166,0.16258658468723297,0.09520882368087769
1782941996454170000,0.145170166015625,-0.03771677613258362,0.285887211561203,0.08775384724140167
1782941996464155100,0.155155029296875,-0.020993651822209358,0.37570852041244507,0.09793578088283539
1782941996474141200,0.16514111328125,-0.024088777601718903,0.4490431845188141,0.12221502512693405
1782941996484126200,0.175126220703125,-0.04962296783924103,0.5055404305458069,0.15302817523479462
1782941996494111000,0.185111083984375,-0.09484317153692245,0.5313209295272827,0.1684020757675171
1782941996504096000,0.195095947265625,-0.14691407978534698,0.5257253050804138,0.17385953664779663
1782941996514081300,0.205081298828125,-0.19132095575332642,0.48440712690353394,0.1712522953748703
1782941996524066300,0.21506640625,-0.22542499005794525,0.4311501383781433,0.16289874911308289
1782941996534051000,0.225051025390625,-0.2562342882156372,0.376555860042572,0.15004554390907288
1782941996544036000,0.2350361328125,-0.2665283977985382,0.33383265137672424,0.13492129743099213
1782941996554021000,0.245021240234375,-0.2606912851333618,0.3033123016357422,0.13149061799049377
1782941996564006100,0.255006103515625,-0.2449619472026825,0.27406176924705505,0.12823046743869781
1782941996573992200,0.2649921875,-0.21724162995815277,0.25748226046562195,0.11416178941726685
1782941996583977200,0.274977294921875,-0.18465276062488556,0.2898688316345215,0.08741174638271332
1782941996593962200,0.284962158203125,-0.13685886561870575,0.36593565344810486,0.0452059730887413
1782941996603947300,0.294947265625,-0.07085514068603516,0.4730771780014038,-0.017855290323495865
1782941996613932000,0.30493212890625,0.014089308679103851,0.593585729598999,-0.1055087074637413
1782941996623917000,0.3149169921875,0.12650619447231293,0.6971167325973511,-0.18206405639648438
1782941996633902000,0.324902099609375,0.2452341765165329,0.7331482172012329,-0.2163599729537964
1782941996643887000,0.33488720703125,0.36503881216049194,0.6488324403762817,-0.17037172615528107
1782941996653872000,0.3448720703125,0.48034945130348206,0.4757472574710846,-0.0561029389500618
1782941996663857200,0.354857177734375,0.6103926301002502,0.2930755615234375,0.09401835501194
1782941996673843200,0.36484326171875,0.7884555459022522,0.13588353991508484,0.23160125315189362
1782941996683828200,0.374828125,1.0217006206512451,0.05536472797393799,0.337472528219223
1782941996693812500,0.3848125,1.2654742002487183,0.031399209052324295,0.38689255714416504
1782941996703797200,0.39479736328125,1.4704316854476929,0.09089813381433487,0.35027649998664856
1782941996713782300,0.4047822265625,1.5789016485214233,0.2825450599193573,0.1842276006937027
1782941996723767300,0.414767333984375,1.556353211402893,0.5830053091049194,-0.12110169976949692
1782941996733752600,0.424752685546875,1.395326018333435,0.8617040514945984,-0.5694442987442017
1782941996743737300,0.4347373046875,1.1669358015060425,0.9396243691444397,-1.1085320711135864
1782941996753722400,0.444722412109375,0.9838120937347412,0.7794402837753296,-1.6196962594985962
1782941996763707400,0.454707275390625,0.9039652347564697,0.48343032598495483,-1.9724148511886597
1782941996773693400,0.464693359375,0.9210842847824097,0.1270759403705597,-2.0437605381011963
1782941996783678200,0.47467822265625,0.9596379995346069,-0.23108570277690887,-1.8469854593276978
1782941996793663500,0.48466357421875,0.9279812574386597,-0.4663277864456177,-1.4869111776351929
1782941996803648500,0.4946484375,0.8234168887138367,-0.5077500343322754,-1.0704529285430908
1782941996813633500,0.504633544921875,0.6929678320884705,-0.43732836842536926,-0.7243620753288269
1782941996823618300,0.514618408203125,0.6248199343681335,-0.40152016282081604,-0.5447952151298523
1782941996833603300,0.524603271484375,0.5926289558410645,-0.40575194358825684,-0.5488876700401306
1782941996843588400,0.53458837890625,0.5461537837982178,-0.3896583318710327,-0.6987854242324829
1782941996853573400,0.544573486328125,0.3955637812614441,-0.41079476475715637,-0.9148847460746765
1782941996863558400,0.554558349609375,0.19593600928783417,-0.4449608623981476,-1.0701154470443726
1782941996873544400,0.56454443359375,-0.004574186634272337,-0.4807526767253876,-1.1005617380142212
1782941996883529500,0.574529541015625,-0.1985480934381485,-0.5354747772216797,-0.9990460276603699
1782941996893514500,0.584514404296875,-0.38074055314064026,-0.6532552242279053,-0.778631329536438
1782941996903499300,0.594499267578125,-0.5318018198013306,-0.8259342312812805,-0.46080997586250305
1782941996913484300,0.604484375,-0.6777928471565247,-0.8966819047927856,-0.14663155376911163
1782941996923469300,0.61446923828125,-0.8324728608131409,-0.8255653977394104,0.04946628212928772
1782941996933454300,0.624454345703125,-0.9922833442687988,-0.6775511503219604,0.05633031204342842
1782941996943439400,0.634439453125,-1.1221107244491577,-0.5035436153411865,-0.07527510821819305
1782941996953424400,0.64442431640625,-1.2403675317764282,-0.29828184843063354,-0.26720619201660156
1782941996963409400,0.654409423828125,-1.3661010265350342,-0.14198672771453857,-0.4850955605506897
1782941996973395500,0.6643955078125,-1.406099796295166,-0.07996996492147446,-0.7142952084541321
1782941996983380200,0.674380126953125,-1.385306477546692,-0.00035576801747083664,-0.9361265897750854
1782941996993365200,0.684365234375,-1.3171029090881348,0.010506732389330864,-1.132609248161316
1782941997003350500,0.6943505859375,-1.1807564496994019,-0.051462721079587936,-1.2951087951660156
1782941997013335600,0.70433544921875,-0.9113394021987915,-0.1189269870519638,-1.3889715671539307
1782941997023320300,0.7143203125,-0.5710324048995972,-0.10247603058815002,-1.4170112609863281
1782941997033305300,0.724305419921875,-0.2788011133670807,0.00410953164100647,-1.402947187423706
1782941997043290400,0.734290283203125,-0.11586327850818634,0.20278070867061615,-1.3407174348831177
1782941997053275400,0.744275390625,-0.06254492700099945,0.4630671441555023,-1.1965141296386719
1782941997063260400,0.754260498046875,-0.03977629169821739,0.9092863202095032,-0.978765606880188
1782941997073245200,0.7642451171875,0.017725352197885513,1.581335425376892,-0.7721807360649109
1782941997083231500,0.7742314453125,0.11542324721813202,2.3922126293182373,-0.5787754654884338
1782941997093216500,0.784216552734375,0.20810630917549133,3.199324369430542,-0.3391284942626953
1782941997103201300,0.794201171875,0.15069156885147095,3.4306509494781494,-0.14878082275390625
1782941997113186300,0.804186279296875,-0.25151845812797546,2.54779052734375,-0.13936734199523926
1782941997123171300,0.81417138671875,-0.5169875025749207,1.1264902353286743,-0.0892471894621849
1782941997133156400,0.82415625,-0.3686997592449188,0.08472872525453568,0.1205955222249031
1782941997143141400,0.834141357421875,-0.053480930626392365,-0.4462745487689972,0.28129780292510986
1782941997153126400,0.84412646484375,0.22841812670230865,-0.6092099547386169,0.3515991270542145
1782941997163111400,0.854111328125,0.442787766456604,0.7815881371498108,0.49268096685409546
1782941997173096400,0.864096435546875,0.6052011251449585,1.2558939456939697,0.8028260469436646
1782941997183082200,0.874082275390625,0.7714686989784241,1.7819678783416748,1.2857228517532349
1782941997193067300,0.8840673828125,0.9204368591308594,1.9198838472366333,1.6878690719604492
1782941997203052300,0.89405224609375,1.049504280090332,1.7618029117584229,1.9398937225341797
1782941997213037600,0.90403759765625,1.1413944959640503,1.5149939060211182,2.1307787895202637
1782941997223022300,0.914022216796875,1.2072917222976685,1.3283265829086304,2.257215738296509
1782941997233007400,0.92400732421875,1.275850534439087,1.1494425535202026,2.3342015743255615
1782941997242992400,0.933992431640625,1.3473209142684937,1.0471631288528442,2.3949904441833496
1782941997252977400,0.943977294921875,1.4131766557693481,0.9685229659080505,2.435762643814087
1782941997262962400,0.95396240234375,1.5115903615951538,0.7768474221229553,2.483027219772339
1782941997272947200,0.963947265625,1.673488974571228,0.5050433278083801,2.5383386611938477
1782941997282933500,0.97393359375,1.7807170152664185,0.34199458360671997,2.667163133621216
1782941997292918500,0.98391845703125,1.7762452363967896,0.44040051102638245,2.906679153442383
1782941997302903300,0.9939033203125,1.7043179273605347,0.6208404898643494,3.1583590507507324
1782941997312888300,1.003888427734375,1.644444465637207,0.6921207904815674,3.338407516479492
1782941997322873300,1.013873291015625,1.5877070426940918,0.6315711140632629,3.4158332347869873
1782941997332858400,1.0238583984375,1.4867476224899292,0.352339506149292,3.295513868331909
1782941997342843400,1.033843505859375,1.3291878700256348,-0.34976086020469666,2.88995623588562
1782941997352828400,1.043828369140625,1.2474994659423828,-1.5725328922271729,2.2978618144989014
1782941997362813400,1.0538134765625,1.3185322284698486,-2.8623626232147217,2.064943313598633
1782941997372798500,1.063798583984375,1.4866071939468384,-3.1113054752349854,2.8913590908050537
1782941997382784300,1.0737841796875,1.7491135597229004,-2.1541781425476074,4.297327995300293
1782941997392769300,1.083769287109375,2.2280240058898926,-0.5917683839797974,5.389739990234375
1782941997402754300,1.09375439453125,2.8099420070648193,0.5265679955482483,5.921345233917236
1782941997412739300,1.1037392578125,3.171543836593628,1.1852754354476929,5.864989757537842
1782941997422724600,1.113724609375,2.9466938972473145,2.0287859439849854,5.38101053237915
1782941997432709400,1.12370947265625,2.331143856048584,2.8093044757843018,4.4784464836120605
1782941997442694400,1.1336943359375,1.7279386520385742,3.3350026607513428,3.225412368774414
1782941997452679400,1.143679443359375,1.1885864734649658,3.5733320713043213,1.854809284210205
1782941997462664400,1.15366455078125,0.8026543259620667,3.099499464035034,0.6092426776885986
1782941997472649200,1.163649169921875,0.8282536864280701,2.0640757083892822,-0.5212894678115845
1782941997482635500,1.173635498046875,1.1127827167510986,0.6676317453384399,-1.6249326467514038
1782941997492620500,1.18362060546875,1.4503690004348755,-0.7873186469078064,-2.464449644088745
1782941997502605300,1.193605224609375,1.6993564367294312,-2.233452558517456,-2.8507676124572754
1782941997512590300,1.20359033203125,1.8397353887557983,-3.4327001571655273,-2.82263445854187
1782941997522575400,1.213575439453125,1.9010449647903442,-4.135718822479248,-2.5335495471954346
1782941997532560400,1.223560302734375,1.8060839176177979,-4.158000469207764,-2.2419636249542236
1782941997542545400,1.23354541015625,1.4669935703277588,-3.532555341720581,-2.0608558654785156
1782941997552530200,1.2435302734375,0.9557949304580688,-2.4611334800720215,-2.063894748687744
1782941997562515500,1.253515380859375,0.37215715646743774,-1.3831020593643188,-2.2186615467071533
1782941997572500500,1.26350048828125,-0.26660922169685364,-0.46330055594444275,-2.4328908920288086
1782941997582486300,1.273486328125,-0.8653561472892761,0.2378082275390625,-2.5914242267608643
1782941997592471300,1.28347119140625,-1.3008441925048828,0.6832194924354553,-2.626349449157715
1782941997602456300,1.293456298828125,-1.530518889427185,0.8185611963272095,-2.5254671573638916
1782941997612441300,1.30344140625,-1.5688740015029907,0.6960225105285645,-2.315904140472412
1782941997622426400,1.31342626953125,-1.4569411277770996,0.43061262369155884,-2.0800137519836426
1782941997632411400,1.323411376953125,-1.256121277809143,0.06636328250169754,-1.8448822498321533
1782941997642396400,1.333396484375,-1.0103847980499268,-0.3239816725254059,-1.5941267013549805
1782941997652381400,1.34338134765625,-0.7849806547164917,-0.6412661075592041,-1.3287147283554077
1782941997662366500,1.353366455078125,-0.6090969443321228,-0.867368221282959,-1.0595126152038574
1782941997672351500,1.3633515625,-0.4948073923587799,-0.9999579787254333,-0.8309564590454102
1782941997682337300,1.373337158203125,-0.44558677077293396,-1.082396149635315,-0.6700252890586853
1782941997692323000,1.383322998046875,-0.45462048053741455,-1.0932862758636475,-0.580011785030365
1782941997702307800,1.393307861328125,-0.498773455619812,-1.0468769073486328,-0.5640316009521484
1782941997712292900,1.40329296875,-0.5396111607551575,-0.960116982460022,-0.6356690526008606
1782941997722278000,1.41327783203125,-0.5540151596069336,-0.8363813161849976,-0.7963104248046875
1782941997732263000,1.423262939453125,-0.5271832346916199,-0.7749043703079224,-0.9934592247009277
1782941997742248000,1.433248046875,-0.4587441086769104,-0.8089627027511597,-1.165461778640747
1782941997752232700,1.443232666015625,-0.3685974180698395,-0.9186607003211975,-1.248607873916626
1782941997762218000,1.453218017578125,-0.2612209916114807,-1.0414174795150757,-1.2282705307006836
1782941997772203000,1.463203125,-0.1360793262720108,-1.1906800270080566,-1.1020689010620117
1782941997782188000,1.47318798828125,0.025656554847955704,-1.3717035055160522,-0.9223672151565552
1782941997792173800,1.483173828125,0.21722759306430817,-1.5096781253814697,-0.7169922590255737
1782941997802158800,1.493158935546875,0.4113147258758545,-1.5778831243515015,-0.5034835338592529
1782941997812143900,1.503143798828125,0.5933196544647217,-1.599955677986145,-0.3151026964187622
1782941997822129000,1.51312890625,0.765220582485199,-1.592376470565796,-0.15044637024402618
1782941997832114000,1.523114013671875,0.90561842918396,-1.52913498878479,-0.03836029767990112
1782941997842099000,1.533098876953125,0.9902898073196411,-1.4170119762420654,0.017930077388882637
1782941997852084000,1.543083984375,1.0128271579742432,-1.2928647994995117,0.0213871281594038
1782941997862069000,1.553069091796875,0.9816583395004272,-1.1770286560058594,0.02207758277654648
1782941997872053800,1.5630537109375,0.911736786365509,-1.0278788805007935,0.057561542838811874
1782941997882038800,1.573038818359375,0.8332481384277344,-0.8644912242889404,0.11855132132768631
1782941997892025000,1.583025146484375,0.7365003228187561,-0.7657933831214905,0.1939544677734375
1782941997902009900,1.593009765625,0.6296619176864624,-0.7039985060691833,0.23634055256843567
1782941997911995000,1.602994873046875,0.49289610981941223,-0.5873858332633972,0.23088960349559784
1782941997921980000,1.61297998046875,0.318562775850296,-0.3136548697948456,0.19484791159629822
1782941997931965000,1.62296484375,0.14482243359088898,0.05414578318595886,0.18417289853096008
1782941997941950000,1.632949951171875,0.10427875816822052,0.5392042994499207,0.3479914963245392
1782941997951934700,1.642934814453125,0.3719445466995239,1.259907603263855,0.7951175570487976
1782941997961919700,1.652919677734375,0.7840784788131714,1.8798224925994873,1.2759305238723755
1782941997971905000,1.662905029296875,0.9565597176551819,1.99691903591156,1.4000718593597412
1782941997981890000,1.67289013671875,0.4981534481048584,1.8297308683395386,0.7764103412628174
1782941997991875800,1.682875732421875,-0.9064059853553772,1.2972056865692139,-0.7839623689651489
1782941998001860900,1.69286083984375,-2.9699320793151855,0.44070249795913696,-2.864410638809204
1782941998011846000,1.702845947265625,-4.922749996185303,-0.4982728362083435,-4.530141830444336
1782941998021831000,1.712830810546875,-6.201691627502441,-1.4605979919433594,-5.1257781982421875
1782941998031815700,1.722815673828125,-6.513589382171631,-2.425934076309204,-4.763158798217773
1782941998041801000,1.732801025390625,-5.463101863861084,-2.553332567214966,-3.766658306121826
1782941998051786000,1.742785888671875,-3.473092794418335,-0.9090030193328857,-2.549497127532959
1782941998061771000,1.75277099609375,-1.4276264905929565,1.5473294258117676,-1.4848805665969849
1782941998071755800,1.762755859375,0.009480994194746017,3.6513869762420654,-0.7539219260215759
1782941998081740800,1.77274072265625,0.6832948923110962,4.812632083892822,-0.2814693748950958
1782941998091726800,1.782726806640625,0.8413510918617249,5.194732666015625,0.07871091365814209
1782941998101712000,1.7927119140625,0.7398561835289001,5.066758632659912,0.35063329339027405
1782941998111697000,1.80269677734375,0.5810289978981018,4.618546009063721,0.4119778871536255
1782941998121682000,1.812681884765625,0.4943540394306183,3.9525485038757324,0.22664229571819305
1782941998131667000,1.8226669921875,0.5276829600334167,3.171124219894409,-0.12889264523983002
1782941998141652000,1.83265185546875,0.6808558106422424,2.2186601161956787,-0.5131083726882935
1782941998151636700,1.84263671875,0.874696671962738,1.2554534673690796,-0.8113024830818176
1782941998161621800,1.852621826171875,1.0804203748703003,0.513198733329773,-0.9463377594947815
1782941998171606800,1.862606689453125,1.2492094039916992,-0.012644574046134949,-0.9410540461540222
1782941998181592000,1.872592041015625,1.3728866577148438,-0.4088248908519745,-0.8840774297714233
1782941998191577900,1.882577880859375,1.472192406654358,-0.735329270362854,-0.8390788435935974
1782941998201563000,1.89256298828125,1.5373939275741577,-0.936955988407135,-0.8441783785820007
1782941998211548000,1.9025478515625,1.5631797313690186,-0.9854004979133606,-0.899966835975647
1782941998221533000,1.912532958984375,1.5405031442642212,-0.917837381362915,-1.0085275173187256
1782941998231517700,1.922517578125,1.4711171388626099,-0.8377199172973633,-1.1668154001235962
1782941998241503000,1.9325029296875,1.3649232387542725,-0.7667605876922607,-1.372371792793274
1782941998251488000,1.942488037109375,1.2138577699661255,-0.7306273579597473,-1.5751336812973022
1782941998261473000,1.95247314453125,1.0290004014968872,-0.7465476393699646,-1.7614384889602661
1782941998271457800,1.962457763671875,0.8292457461357117,-0.8455604910850525,-1.9090548753738403
1782941998281442800,1.97244287109375,0.6055785417556763,-0.9255409240722656,-1.9893465042114258
1782941998291428900,1.982428955078125,0.3595655560493469,-0.9666127562522888,-2.0173070430755615
1782941998301414000,1.992413818359375,0.11234128475189209,-0.9912450313568115,-2.0200326442718506
1782941998311399000,2.00239892578125,-0.09427713602781296,-1.0196533203125,-2.020887613296509
1782941998321384000,2.012384033203125,-0.24259960651397705,-1.0047975778579712,-2.0060691833496094
1782941998331369000,2.022368896484375,-0.3475206792354584,-0.909467339515686,-1.9800002574920654
1782941998341354000,2.03235400390625,-0.43132203817367554,-0.7839834690093994,-1.9092044830322266
1782941998351338800,2.0423388671875,-0.5194265842437744,-0.6754907965660095,-1.770654559135437
1782941998361323800,2.05232373046875,-0.5935788750648499,-0.5338743925094604,-1.5203373432159424
1782941998371308800,2.062308837890625,-0.6638285517692566,-0.37259337306022644,-1.167757272720337
1782941998381293800,2.0722939453125,-0.7241507172584534,-0.20152547955513,-0.7551649212837219
1782941998391279900,2.08227978515625,-0.7530433535575867,-0.03288479521870613,-0.3704105615615845
1782941998401265000,2.092264892578125,-0.7622261047363281,0.13653531670570374,-0.06464124470949173
1782941998411250000,2.10225,-0.7388723492622375,0.4248427748680115,0.14585234224796295
1782941998421235000,2.11223486328125,-0.7397242784500122,0.825687050819397,0.24337123334407806
1782941998431219700,2.1222197265625,-0.8321540951728821,1.2840651273727417,0.20720523595809937
1782941998441204700,2.132204833984375,-1.0911123752593994,1.9350043535232544,0.15025761723518372
1782941998451190000,2.14218994140625,-1.4130443334579468,2.719094753265381,0.26278015971183777
1782941998461175000,2.152175048828125,-1.6591557264328003,2.828867197036743,0.5759655237197876
1782941998471159800,2.162159912109375,-1.6411473751068115,2.200528860092163,0.9755914807319641
1782941998481144800,2.172144775390625,-1.37678062915802,0.9557382464408875,1.2441740036010742
1782941998491131000,2.182130859375,-1.0268620252609253,-0.10457002371549606,1.4285062551498413
1782941998501116000,2.192115966796875,-0.7068042159080505,0.314828097820282,1.7956064939498901
1782941998511100700,2.2021005859375,-0.44434624910354614,0.9604752659797668,2.6282405853271484
1782941998521086000,2.2120859375,-0.06201138719916344,2.2467546463012695,3.779439926147461
1782941998531071000,2.222071044921875,0.5155140161514282,3.8618316650390625,4.79210090637207
1782941998541056000,2.232055908203125,1.3950555324554443,5.029186248779297,5.485570430755615
1782941998551040800,2.242040771484375,2.298309564590454,5.648245334625244,5.875396251678467
1782941998561025800,2.25202587890625,2.807157516479492,5.929746627807617,5.974022388458252
1782941998571010800,2.2620107421875,2.758882999420166,5.969937324523926,5.828058242797852
1782941998580995800,2.271995849609375,2.32450532913208,6.024569988250732,5.461035251617432
1782941998590982000,2.28198193359375,1.980928897857666,6.293641567230225,4.767155647277832
1782941998600967000,2.291966796875,1.8610957860946655,6.215166091918945,3.8319180011749268
1782941998610952000,2.301951904296875,2.060194730758667,5.898200988769531,3.0330090522766113
1782941998620937000,2.31193701171875,2.452117919921875,4.733265399932861,2.4315226078033447
1782941998630921700,2.321921630859375,2.8573362827301025,2.558837652206421,2.049985408782959
1782941998640906800,2.33190673828125,3.026533842086792,-0.07009897381067276,1.9590952396392822
1782941998650891800,2.341891845703125,2.854327440261841,-2.399320125579834,2.1316118240356445
1782941998660877000,2.351876953125,2.529104709625244,-3.9217779636383057,2.178546905517578
1782941998670862000,2.361862060546875,2.1594271659851074,-4.581037521362305,2.0167977809906006
1782941998680848000,2.371847900390625,1.6170555353164673,-4.333909511566162,1.7504079341888428
1782941998690833200,2.381833251953125,0.8672269582748413,-3.427847385406494,1.4388599395751953
1782941998700818200,2.391818115234375,0.09857868403196335,-2.578606367111206,1.1206650733947754
1782941998710803000,2.401802978515625,-0.5727728009223938,-2.1547608375549316,0.8509117960929871
1782941998720788000,2.4117880859375,-1.186171054840088,-2.0555834770202637,0.6531163454055786
1782941998730773000,2.42177294921875,-1.7091150283813477,-2.0909507274627686,0.5339697003364563
1782941998740758000,2.431758056640625,-2.0618715286254883,-2.1906280517578125,0.4332837462425232
1782941998750743000,2.441742919921875,-2.2915234565734863,-2.3260858058929443,0.33654096722602844
1782941998760728000,2.45172802734375,-2.4033257961273193,-2.3603079319000244,0.27237898111343384
1782941998770713000,2.461713134765625,-2.334007978439331,-2.209413528442383,0.2197812795639038
1782941998780699100,2.47169921875,-2.106044054031372,-1.9532363414764404,0.17878083884716034
1782941998790684000,2.481683837890625,-1.760310173034668,-1.6164155006408691,0.15367601811885834
1782941998800669000,2.4916689453125,-1.3802211284637451,-1.2727530002593994,0.13183264434337616
1782941998810654000,2.501654052734375,-1.0538920164108276,-0.9335541725158691,0.10605696588754654
1782941998820639000,2.511638916015625,-0.8161423802375793,-0.6030706167221069,0.07018665969371796
1782941998830624000,2.5216240234375,-0.6604347825050354,-0.3464473485946655,0.002392701804637909
1782941998840609000,2.531609130859375,-0.5741348266601562,-0.2004643827676773,-0.10110773146152496
1782941998850594000,2.541593994140625,-0.5785463452339172,-0.17751087248325348,-0.21996992826461792
1782941998860579000,2.5515791015625,-0.6589057445526123,-0.23897433280944824,-0.35137128829956055
1782941998870564000,2.561564208984375,-0.7748779058456421,-0.3721528947353363,-0.5184263586997986
1782941998880550000,2.5715498046875,-0.8883891105651855,-0.6019635796546936,-0.7178173661231995
1782941998890535200,2.58153515625,-0.9929871559143066,-0.9212717413902283,-0.9126824736595154
1782941998900520200,2.591520263671875,-1.0651432275772095,-1.3034179210662842,-1.114841341972351
1782941998910505000,2.6015048828125,-1.068622350692749,-1.629421591758728,-1.315523624420166
1782941998920490000,2.611489990234375,-0.9820895195007324,-1.864479422569275,-1.4877194166183472
1782941998930475000,2.62147509765625,-0.8305356502532959,-2.0155158042907715,-1.60213041305542
1782941998940460000,2.6314599609375,-0.646584689617157,-2.1275341510772705,-1.6412529945373535
1782941998950445000,2.641445068359375,-0.4364418089389801,-2.19974422454834,-1.5810091495513916
1782941998960429800,2.651429931640625,-0.19610284268856049,-2.2119929790496826,-1.4480323791503906
1782941998970415000,2.6614150390625,0.05540342256426811,-2.1187305450439453,-1.2446630001068115
1782941998980401200,2.671401123046875,0.31444570422172546,-1.9358141422271729,-1.0325477123260498
1782941998990386000,2.681385986328125,0.5929598808288574,-1.717711329460144,-0.851814329624176
1782941999000371000,2.691370849609375,0.8626726269721985,-1.5544366836547852,-0.7300524711608887
1782941999010356000,2.70135595703125,1.1119519472122192,-1.4475890398025513,-0.675700306892395
1782941999020341000,2.711341064453125,1.334621787071228,-1.3898833990097046,-0.6826891303062439
1782941999030326000,2.721325927734375,1.5304749011993408,-1.4047746658325195,-0.7553364634513855
1782941999040311000,2.73131103515625,1.6449344158172607,-1.5836338996887207,-0.8315362334251404
1782941999050296000,2.741296142578125,1.6848794221878052,-1.8812775611877441,-0.8263319134712219
1782941999060281000,2.751281005859375,1.6655045747756958,-2.0543885231018066,-0.7077777981758118
1782941999070267000,2.761266845703125,1.5305569171905518,-1.9573205709457397,-0.4931211471557617
1782941999080252000,2.771251953125,1.2359029054641724,-1.4523149728775024,-0.18234534561634064
1782941999090237000,2.78123681640625,0.8794172406196594,-0.4389941394329071,0.23720957338809967
1782941999100222200,2.79122216796875,0.6866005659103394,1.2616355419158936,0.7616692185401917
1782941999110207000,2.80120703125,0.7798426151275635,3.0677852630615234,1.1436562538146973
1782941999120192000,2.81119189453125,0.8412824273109436,4.170477390289307,1.1107105016708374
1782941999130177000,2.821177001953125,0.4389927387237549,3.898508071899414,0.6028270125389099
1782941999140162000,2.831162109375,-0.8947336077690125,1.9414845705032349,-0.42246726155281067
1782941999150147000,2.84114697265625,-3.1412057876586914,-0.8388411998748779,-1.9664278030395508
1782941999160131800,2.8511318359375,-5.266430854797363,-2.8312489986419678,-3.708421468734741
1782941999170118100,2.8611181640625,-6.517901420593262,-2.997126579284668,-4.828417778015137
1782941999180103200,2.871103271484375,-6.7436394691467285,-0.8752487301826477,-4.568277835845947
1782941999190088000,2.881087890625,-5.951061248779297,2.297809600830078,-3.4188835620880127
1782941999200073000,2.891072998046875,-4.436695098876953,5.30467414855957,-2.652625322341919
1782941999210058000,2.90105810546875,-2.773538112640381,7.0369415283203125,-2.2394347190856934
1782941999220043000,2.91104296875,-1.057043194770813,7.0298333168029785,-1.486139178276062
1782941999230028000,2.921028076171875,0.8502355217933655,5.86743688583374,-0.3117847144603729
1782941999240013000,2.931012939453125,2.5415680408477783,4.111684799194336,1.0093333721160889
1782941999249998000,2.940998046875,3.8834168910980225,2.2156546115875244,2.278118133544922
1782941999259983000,2.950983154296875,4.885903358459473,0.4451889395713806,3.185879945755005
1782941999269969000,2.960968994140625,5.567272186279297,-0.9640262126922607,3.520052671432495
1782941999279954000,2.970953857421875,5.907459259033203,-1.7362951040267944,3.3601155281066895
1782941999289939000,2.98093896484375,5.896336078643799,-1.8499348163604736,2.9839494228363037
1782941999299924000,2.990924072265625,5.582657814025879,-1.4390957355499268,2.610360622406006
1782941999309909000,3.000908935546875,5.120965480804443,-0.7239933609962463,2.3180978298187256
1782941999319894000,3.01089404296875,4.6303935050964355,0.03616109862923622,2.120744228363037
1782941999329879000,3.020879150390625,4.161771774291992,0.5960606336593628,2.002720832824707
1782941999339864000,3.030864013671875,3.7231099605560303,0.8871976137161255,1.961431860923767
1782941999349849000,3.04084912109375,3.3809001445770264,0.9241915941238403,1.9730298519134521
1782941999359835000,3.0508349609375,3.1974425315856934,0.6956630945205688,2.0108044147491455
1782941999369820200,3.060820068359375,3.0922188758850098,0.22199136018753052,2.0237958431243896
1782941999379805200,3.07080517578125,2.9506680965423584,-0.3526952266693115,1.9852603673934937
1782941999389790000,3.0807900390625,2.753136157989502,-0.8938125371932983,1.865538239479065
1782941999399775000,3.09077490234375,2.488076686859131,-1.2854723930358887,1.6326526403427124
1782941999409760000,3.100760009765625,2.1721246242523193,-1.4733741283416748,1.2977737188339233
1782941999419745000,3.1107451171875,1.8450051546096802,-1.4552820920944214,0.8885682225227356
1782941999429730000,3.12072998046875,1.5204155445098877,-1.2526843547821045,0.44620728492736816
1782941999439714800,3.13071484375,1.1948806047439575,-0.9821650385856628,0.036211468279361725
1782941999449700000,3.1407001953125,0.8879750370979309,-0.6930208802223206,-0.2655380070209503
1782941999459686100,3.15068603515625,0.6317766904830933,-0.3999829590320587,-0.42708414793014526
1782941999469671000,3.1606708984375,0.4499592185020447,-0.1802349090576172,-0.4809092879295349
1782941999479656000,3.170656005859375,0.32605689764022827,-0.07429004460573196,-0.4620319604873657
1782941999489641000,3.180640869140625,0.2532958686351776,-0.06409865617752075,-0.37460705637931824
1782941999499626000,3.1906259765625,0.2134362906217575,-0.1655580699443817,-0.21176928281784058
1782941999509611000,3.200611083984375,0.1383522003889084,-0.32085391879081726,0.041812386363744736
1782941999519596000,3.210595947265625,0.019904019311070442,-0.4154033362865448,0.31043294072151184
1782941999529581000,3.2205810546875,-0.08794308453798294,-0.38128289580345154,0.4488030672073364
1782941999539566000,3.230566162109375,-0.16871953010559082,-0.24944356083869934,0.4145725667476654
1782941999549551000,3.240551025390625,-0.2500940263271332,0.029597928747534752,0.24491509795188904
1782941999559537000,3.250536865234375,-0.33002451062202454,0.4409377872943878,0.03746403753757477
1782941999569522000,3.26052197265625,-0.4057389795780182,0.6595339775085449,-0.2460305243730545
1782941999579507200,3.270507080078125,-0.5021340847015381,0.26527824997901917,-0.6255416870117188
1782941999589492000,3.280491943359375,-0.6666364669799805,-0.8516086339950562,-0.9949432015419006
1782941999599477000,3.29047705078125,-0.9343416094779968,-2.402038097381592,-1.3011611700057983
1782941999609462000,3.3004619140625,-1.4991620779037476,-3.789839267730713,-1.8054165840148926
1782941999619447000,3.310447021484375,-2.358332872390747,-4.481304168701172,-2.7385458946228027
1782941999629432000,3.32043212890625,-3.2348875999450684,-4.030806541442871,-3.705108404159546
1782941999639416800,3.330416748046875,-3.859909772872925,-2.590689182281494,-3.84024715423584
1782941999649403100,3.340403076171875,-4.090914249420166,-0.21262113749980927,-2.5442237854003906
1782941999659388200,3.35038818359375,-3.7032060623168945,1.953781008720398,-0.4073198735713959
1782941999669373000,3.360373046875,-2.6337151527404785,3.093445301055908,1.5070407390594482
1782941999679358000,3.37035791015625,-1.4981310367584229,3.029487371444702,2.820528984069824
1782941999689343000,3.380343017578125,-0.7323524355888367,1.9707472324371338,3.652554988861084
1782941999699331600,3.39033154296875,-0.30066123604774475,0.060015514492988586,4.131667137145996
1782941999709316600,3.400316650390625,-0.30140745639801025,-1.5092322826385498,4.496095180511475
1782941999719301400,3.41030126953125,-0.651146411895752,-1.6645917892456055,4.662336349487305
1782941999729286400,3.420286376953125,-1.0734224319458008,-0.3114635646343231,4.538143634796143
1782941999739272700,3.430272705078125,-1.3897104263305664,1.4800150394439697,4.261370658874512
1782941999749257500,3.440257568359375,-1.572506308555603,2.2479143142700195,3.9259235858917236
1782941999759242500,3.450242431640625,-1.4217417240142822,1.6608047485351562,3.7697978019714355
1782941999769227500,3.4602275390625,-0.9569252729415894,0.001443394459784031,3.553187608718872
1782941999779212500,3.470212646484375,-0.351784348487854,-2.053571939468384,3.112853765487671
1782941999789197600,3.480197509765625,0.35282814502716064,-3.7954885959625244,2.5476114749908447
1782941999799182300,3.490182373046875,0.9086043238639832,-4.784847259521484,2.0712826251983643
1782941999809167600,3.500167724609375,1.0253362655639648,-4.884244918823242,1.6725016832351685
1782941999819152600,3.510152587890625,0.7515159249305725,-4.250907897949219,1.2966392040252686
1782941999829137700,3.5201376953125,0.20755384862422943,-2.8419547080993652,0.9370506405830383
1782941999839123500,3.53012353515625,-0.3997740149497986,-1.2735899686813354,0.6388091444969177
1782941999849108500,3.5401083984375,-0.8924418091773987,-0.05113886296749115,0.3324154317378998
1782941999859093500,3.550093505859375,-1.2426701784133911,0.7655407786369324,0.014595652930438519
1782941999869078300,3.560078369140625,-1.500141978263855,1.064211130142212,-0.3272242844104767
1782941999879063600,3.5700634765625,-1.6424003839492798,0.9066688418388367,-0.7455429434776306
1782941999889048600,3.580048583984375,-1.7140032052993774,0.3767983317375183,-1.1973776817321777
1782941999899033600,3.59003369140625,-1.6991122961044312,-0.2249687910079956,-1.6119145154953003
1782941999909018600,3.6000185546875,-1.5430073738098145,-0.6410253643989563,-1.9454584121704102
1782941999919003400,3.61000341796875,-1.2716785669326782,-0.7791116237640381,-2.153799057006836
1782941999928989400,3.619989501953125,-0.9573456645011902,-0.7626290321350098,-2.230395793914795
1782941999938974700,3.629974609375,-0.6151184439659119,-0.6946474313735962,-2.2219226360321045
1782941999948959500,3.63995947265625,-0.25908413529396057,-0.6770399212837219,-2.187201738357544
1782941999958944500,3.649944580078125,0.08199027925729752,-0.7745084166526794,-2.1731741428375244
1782941999968929500,3.659929443359375,0.3892413079738617,-1.0126405954360962,-2.2276527881622314
1782941999978914600,3.66991455078125,0.6280132532119751,-1.3281712532043457,-2.323049306869507
1782941999988899600,3.679899658203125,0.7803612351417542,-1.4380143880844116,-2.394735097885132
1782941999998884400,3.68988427734375,0.8515992164611816,-1.3223518133163452,-2.4470090866088867
1782942000008869400,3.699869384765625,0.8483009338378906,-1.0961353778839111,-2.515450954437256
1782942000018855700,3.709855712890625,0.7834712266921997,-0.8166656494140625,-2.6201233863830566
1782942000028840400,3.71984033203125,0.7034298777580261,-0.5264772176742554,-2.7453508377075195
1782942000038825500,3.729825439453125,0.626789927482605,-0.2731483280658722,-2.8522071838378906
1782942000048810500,3.739810546875,0.5750817060470581,-0.10561925172805786,-2.9057090282440186
1782942000058795500,3.74979541015625,0.5635055303573608,-0.06398414075374603,-2.8902180194854736
1782942000068780500,3.759780517578125,0.6228285431861877,-0.07413450628519058,-2.825057029724121
1782942000078765300,3.769765380859375,0.7243884205818176,-0.10791587829589844,-2.739839553833008
1782942000088750600,3.77975048828125,0.8325088024139404,-0.1839698851108551,-2.6154727935791016
1782942000098735600,3.789735595703125,0.9417122602462769,-0.20594146847724915,-2.407205581665039
1782942000108720600,3.799720703125,1.0626678466796875,-0.1453220695257187,-2.095690965652466
1782942000118706400,3.80970654296875,1.1801587343215942,-0.06994444876909256,-1.7268811464309692
1782942000128691500,3.81969140625,1.2835613489151,-0.056493889540433884,-1.391284465789795
1782942000138676500,3.829676513671875,1.3911210298538208,-0.12337605655193329,-1.1482466459274292
1782942000148661500,3.83966162109375,1.5056408643722534,-0.20889095962047577,-1.021481990814209
1782942000158646500,3.849646484375,1.6451982259750366,-0.29591071605682373,-1.0302178859710693
1782942000168631600,3.859631591796875,1.7697535753250122,-0.3297637701034546,-1.1512995958328247
1782942000178616600,3.869616455078125,1.8359124660491943,-0.2835749089717865,-1.2906066179275513
1782942000188601600,3.8796015625,1.8373582363128662,-0.1555144190788269,-1.3119560480117798
1782942000198586400,3.88958642578125,1.8313270807266235,0.09251899272203445,-1.0718640089035034
1782942000208572700,3.89957275390625,1.9222625494003296,0.4835091233253479,-0.5989575386047363
1782942000218557700,3.9095576171875,2.0856611728668213,0.9009491801261902,-0.04364994168281555
1782942000228542500,3.91954248046875,2.3173463344573975,1.278457522392273,0.3290165960788727
1782942000238527500,3.929527587890625,2.096240758895874,1.4878840446472168,0.020611828193068504
1782942000248512500,3.939512451171875,0.6216050386428833,1.3761076927185059,-1.4828712940216064
1782942000258497500,3.94949755859375,-2.0260512828826904,0.0990716740489006,-3.952371597290039
1782942000268482600,3.959482666015625,-4.486959457397461,-3.022120714187622,-6.313354015350342
1782942000278467300,3.96946728515625,-5.690395832061768,-5.547539710998535,-7.171152591705322
1782942000288452600,3.97945263671875,-5.839407444000244,-4.7311859130859375,-5.808686256408691
1782942000298434600,3.9894345703125,-4.866629123687744,0.020660970360040665,-2.609203815460205
1782942000308419600,3.999419677734375,-2.7292251586914062,4.550273895263672,-0.06178487837314606
1782942000318404400,4.009404296875,-0.6706579327583313,6.390539646148682,1.325120210647583
1782942000328389400,4.019389404296875,0.33930301666259766,5.966060161590576,2.501278877258301
1782942000338374700,4.029374755859375,0.7948904037475586,4.3191609382629395,3.605476140975952
1782942000348360400,4.0393603515625,1.0353784561157227,2.571260452270508,4.312477111816406
1782942000358345500,4.049345458984375,1.2002413272857666,1.1809889078140259,4.294955730438232
1782942000368330500,4.05933056640625,1.326407790184021,0.24599838256835938,3.5962166786193848
1782942000378315500,4.0693154296875,1.3944886922836304,-0.2852334678173065,2.4953136444091797
1782942000388300500,4.079300537109375,1.3996131420135498,-0.5576948523521423,1.3694214820861816
1782942000398285600,4.08928564453125,1.3545844554901123,-0.6982711553573608,0.5261640548706055
1782942000408270600,4.0992705078125,1.2978005409240723,-0.7869800329208374,0.044417403638362885
1782942000418255600,4.109255615234375,1.2550607919692993,-0.940697968006134,-0.19274652004241943
1782942000428240600,4.11924072265625,1.17781662940979,-1.2166625261306763,-0.2952478528022766
1782942000438226400,4.129226318359375,1.0029555559158325,-1.5340838432312012,-0.24469956755638123
1782942000448211500,4.13921142578125,0.7216700315475464,-1.8107985258102417,-0.02615070715546608
1782942000458196500,4.149196533203125,0.4009588062763214,-2.0153439044952393,0.24469810724258423
1782942000468181500,4.159181396484375,0.13282056152820587,-2.1324141025543213,0.38258618116378784
1782942000478166500,4.16916650390625,-0.06694472581148148,-2.1500277519226074,0.28601422905921936
1782942000488151600,4.179151611328125,-0.23864299058914185,-2.0175297260284424,0.0005699577741324902
1782942000498136600,4.189136474609375,-0.4003946781158447,-1.7078675031661987,-0.38707733154296875
1782942000508121600,4.19912158203125,-0.5324254035949707,-1.2592068910598755,-0.7688095569610596
1782942000518106400,4.2091064453125,-0.6571063995361328,-0.7448564171791077,-1.097192645072937
1782942000528092700,4.2190927734375,-0.7737445831298828,-0.2834070324897766,-1.3277875185012817
1782942000538077700,4.22907763671875,-0.8544754981994629,0.10192155838012695,-1.458191156387329
1782942000548062500,4.2390625,-0.8935896158218384,0.3882688879966736,-1.4990214109420776
1782942000558047500,4.249047607421875,-0.8824958801269531,0.59796541929245,-1.4675296545028687
1782942000568032500,4.259032470703125,-0.8277900218963623,0.7612688541412354,-1.3775949478149414
1782942000578017500,4.269017578125,-0.723015308380127,0.8390003442764282,-1.2489409446716309
1782942000588002600,4.27900244140625,-0.564088761806488,0.8425037860870361,-1.1020797491073608
1782942000597987300,4.2889873046875,-0.3750367760658264,0.7624912858009338,-0.9703010320663452
1782942000607972600,4.29897265625,-0.16702523827552795,0.587862491607666,-0.8688034415245056
1782942000617958700,4.308958740234375,0.02843460999429226,0.32239869236946106,-0.7842007279396057
1782942000627943400,4.318943359375,0.18725967407226562,0.029760977253317833,-0.7004965543746948
1782942000637928400,4.328928466796875,0.3050196170806885,-0.26269057393074036,-0.6065358519554138
1782942000647913500,4.33891357421875,0.3737941384315491,-0.5740654468536377,-0.501693844795227
1782942000657898500,4.3488984375,0.4025295078754425,-0.8455163240432739,-0.40170833468437195
1782942000667883500,4.358883544921875,0.41451799869537354,-1.0398216247558594,-0.32266491651535034
1782942000677868500,4.36886865234375,0.4215974807739258,-1.1417930126190186,-0.27366334199905396
1782942000687853600,4.378853515625,0.43390339612960815,-1.1503026485443115,-0.26189351081848145
1782942000697835300,4.388835205078125,0.4455184042453766,-1.08869206905365,-0.30661776661872864
1782942000707820300,4.3988203125,0.4598744511604309,-1.0494805574417114,-0.37414008378982544
1782942000717806300,4.408806396484375,0.4771791696548462,-1.0231186151504517,-0.41439568996429443
1782942000727791400,4.418791259765625,0.4710661768913269,-0.971139669418335,-0.39182329177856445
1782942000737776400,4.4287763671875,0.38612401485443115,-0.9283550977706909,-0.3580879271030426
1782942000747761200,4.43876123046875,0.20594120025634766,-0.9943833351135254,-0.3772757351398468
1782942000757746200,4.44874609375,-0.09108244627714157,-1.058758020401001,-0.4293357729911804
1782942000767731200,4.458731201171875,-0.5251758694648743,-0.8545273542404175,-0.553976833820343
1782942000777716500,4.468716552734375,-1.1404039859771729,-0.32040339708328247,-1.0388885736465454
1782942000787701200,4.478701171875,-1.9874359369277954,0.6199949383735657,-2.136831521987915
1782942000797686300,4.488686279296875,-2.818028688430786,1.273252248764038,-3.6385459899902344
1782942000807672300,4.49867236328125,-3.31009578704834,0.682162880897522,-4.922959327697754
1782942000817657300,4.5086572265625,-3.3428781032562256,0.11710099130868912,-5.161151885986328
1782942000827642000,4.51864208984375,-2.925842046737671,1.4908620119094849,-3.6957950592041016
1782942000837627400,4.52862744140625,-2.0458221435546875,4.903355121612549,-0.9583435654640198
1782942000847612400,4.5386123046875,-0.6664943695068359,8.314850807189941,1.9025135040283203
1782942000857597400,4.548597412109375,0.7356054186820984,9.463934898376465,4.034203052520752
1782942000867582200,4.558582275390625,1.7633183002471924,8.504318237304688,5.131170272827148
1782942000877567200,4.568567138671875,2.3859729766845703,6.691642761230469,5.331957817077637
1782942000887552300,4.57855224609375,2.6107053756713867,5.040550708770752,4.860961437225342
1782942000897538300,4.588538330078125,2.4440693855285645,4.3996710777282715,4.12774133682251
1782942000907523300,4.5985234375,2.0097362995147705,4.494800567626953,3.536001682281494
1782942000917508400,4.60850830078125,1.5320757627487183,4.944406509399414,3.1450576782226562
1782942000927493400,4.618493408203125,1.119424819946289,5.259986400604248,2.898042917251587
1782942000937478400,4.628478515625,0.828578531742096,5.262012481689453,2.804332971572876
1782942000947463200,4.638463134765625,0.7579432129859924,4.672208309173584,2.650482416152954
1782942000957448200,4.6484482421875,0.904026985168457,3.151196002960205,2.3327884674072266
1782942000967433200,4.65843310546875,1.0686968564987183,0.9283464550971985,2.2083001136779785
1782942000977418200,4.668418212890625,1.0399459600448608,-1.2164313793182373,2.3532755374908447
1782942000987404300,4.678404296875,0.8775601387023926,-2.866835594177246,2.477292060852051
1782942000997389300,4.688389404296875,0.6449394822120667,-3.8556878566741943,2.2298977375030518
1782942001007374300,4.698374267578125,0.31871774792671204,-3.907148838043213,1.6488093137741089
1782942001017359400,4.708359375,0.01644470915198326,-3.23980975151062,1.0037025213241577
1782942001027344100,4.71834423828125,-0.16228695213794708,-2.2089908123016357,0.5171998739242554
1782942001037329200,4.7283291015625,-0.3379960358142853,-1.1358842849731445,0.251186728477478
1782942001047314400,4.738314453125,-0.5780094265937805,-0.23459015786647797,0.09966271370649338
1782942001057299500,4.748299560546875,-0.7714072465896606,0.4086921215057373,-0.03158584609627724
1782942001067284200,4.7582841796875,-0.8438901901245117,0.7672479152679443,-0.20881281793117523
1782942001077270300,4.768270263671875,-0.8662285804748535,0.8334829807281494,-0.4445157051086426
1782942001087255300,4.77825537109375,-0.8668709397315979,0.7084965705871582,-0.7362219095230103
1782942001097240300,4.788240234375,-0.8441923260688782,0.3939214050769806,-1.0477482080459595
1782942001107225300,4.798225341796875,-0.8010208606719971,-0.05454213544726372,-1.367567539215088
1782942001117210400,4.80821044921875,-0.6980879902839661,-0.36640533804893494,-1.6656075716018677
1782942001127195400,4.8181953125,-0.5284488797187805,-0.46043622493743896,-1.9304534196853638
1782942001137180400,4.828180419921875,-0.36192840337753296,-0.45055004954338074,-2.1733651161193848
1782942001147165200,4.838165283203125,-0.24370695650577545,-0.43184134364128113,-2.3385441303253174
1782942001157150200,4.848150146484375,-0.18225617706775665,-0.4562538266181946,-2.3680012226104736
1782942001167136300,4.85813623046875,-0.17668378353118896,-0.6010187268257141,-2.272103786468506
1782942001177121300,4.868121337890625,-0.16237680613994598,-0.8963721990585327,-2.1642353534698486
1782942001187106300,4.878106201171875,-0.12261474132537842,-1.3009997606277466,-2.1054160594940186
1782942001197091300,4.88809130859375,-0.07988785952329636,-1.8174492120742798,-2.077194929122925
1782942001207076400,4.898076416015625,-0.007092746440321207,-2.4118313789367676,-2.0337605476379395
1782942001217061400,4.908061279296875,0.08426056802272797,-2.9227380752563477,-1.9459519386291504
1782942001227046100,4.918046142578125,0.2045462280511856,-3.2014503479003906,-1.7754642963409424
1782942001237031200,4.92803125,0.35747089982032776,-3.2419795989990234,-1.52687406539917
1782942001247016200,4.93801611328125,0.5475191473960876,-3.0257949829101562,-1.2632617950439453
1782942001257001500,4.94800146484375,0.7684184908866882,-2.6008543968200684,-1.034118413925171
1782942001266987300,4.9579873046875,0.9945229887962341,-2.1259243488311768,-0.8729822039604187
1782942001276972300,4.96797216796875,1.1956212520599365,-1.7377697229385376,-0.7904555797576904
1782942001286957300,4.977957275390625,1.3765531778335571,-1.4380466938018799,-0.7487336993217468
1782942001296942300,4.9879423828125,1.5312131643295288,-1.3198899030685425,-0.7259605526924133
1782942001306927000,4.997927001953125,1.6361578702926636,-1.3561784029006958,-0.7090380787849426
1782942001316912400,5.007912353515625,1.7170026302337646,-1.4890979528427124,-0.6744289398193359
1782942001326897400,5.0178974609375,1.76578950881958,-1.663658618927002,-0.6025446653366089
1782942001336882400,5.02788232421875,1.790116786956787,-1.6567939519882202,-0.5120200514793396
1782942001346867200,5.0378671875,1.7801189422607422,-1.4255868196487427,-0.44635823369026184
1782942001356853200,5.047853271484375,1.7137209177017212,-1.111789584159851,-0.40942853689193726
1782942001366838300,5.05783837890625,1.604278326034546,-0.8163740038871765,-0.41152578592300415
1782942001376823300,5.0678232421875,1.4659206867218018,-0.5293490886688232,-0.4261932075023651
1782942001386808300,5.077808349609375,1.3131463527679443,-0.1246090829372406,-0.45153263211250305
1782942001396793300,5.08779345703125,1.1466975212097168,0.35739561915397644,-0.46382421255111694
1782942001406778400,5.0977783203125,1.0015949010849,0.8748883605003357,-0.4152582585811615
1782942001416763400,5.107763427734375,0.960669755935669,1.2701456546783447,-0.42406725883483887
1782942001426748200,5.117748046875,0.7693634033203125,1.4677317142486572,-0.944535493850708
1782942001436733200,5.127733154296875,-0.18464042246341705,-0.29237037897109985,-2.5533130168914795
1782942001446718200,5.13771826171875,-1.5634433031082153,-5.008970260620117,-4.982524871826172
1782942001456704300,5.147704345703125,-2.036862373352051,-8.798408508300781,-6.091391563415527
1782942001466689300,5.157689208984375,-1.8355472087860107,-6.778163433074951,-3.6423110961914062
1782942001476674300,5.16767431640625,-1.8396151065826416,1.5612951517105103,1.1447807550430298
1782942001486659300,5.177659423828125,-1.4942011833190918,7.750870704650879,3.8969810009002686
1782942001496644400,5.187644287109375,-1.1502522230148315,9.591785430908203,4.691664218902588
1782942001506629000,5.197629150390625,-1.172560453414917,8.691845893859863,4.9989800453186035
1782942001516614100,5.2076142578125,-1.1798900365829468,6.347856521606445,4.965364456176758
1782942001526599400,5.217599365234375,-0.9582210779190063,3.915410280227661,4.422524452209473
1782942001536585200,5.227585205078125,-0.5977325439453125,2.0318334102630615,3.632366418838501
1782942001546570200,5.2375703125,-0.21055765450000763,0.5892205238342285,2.8799407482147217
1782942001556555300,5.24755517578125,0.2268143892288208,-0.6922385692596436,2.1190531253814697
1782942001566540300,5.257540283203125,0.6308401226997375,-1.3908767700195312,1.2761503458023071
1782942001576525300,5.267525390625,0.8884837627410889,-1.4432309865951538,0.4767707884311676
1782942001586510300,5.27751025390625,1.0555683374404907,-0.9419876933097839,-0.18934838473796844
1782942001596495400,5.287495361328125,1.2274905443191528,-0.31680360436439514,-0.625373899936676
1782942001606480400,5.29748046875,1.3001455068588257,-0.0060491785407066345,-0.6073139309883118
1782942001616465400,5.30746533203125,1.1171188354492188,-0.16934439539909363,-0.08489248901605606
1782942001626451200,5.317451171875,0.6613420248031616,-0.5359522700309753,0.6055581569671631
1782942001636436200,5.327436279296875,0.15345031023025513,-0.8621811866760254,1.078689694404602
1782942001646421200,5.337421142578125,-0.26143956184387207,-1.0015544891357422,1.1345738172531128
1782942001656406500,5.347406494140625,-0.5095967054367065,-0.8860243558883667,0.8504573702812195
1782942001666391300,5.357391357421875,-0.5498889684677124,-0.7305886745452881,0.45772260427474976
1782942001676376300,5.367376220703125,-0.4516584575176239,-0.4875163733959198,0.19077199697494507
1782942001686361300,5.377361328125,-0.3492197096347809,-0.10455086827278137,0.12674401700496674
1782942001696346400,5.387346435546875,-0.2852000296115875,0.2838348150253296,0.13828833401203156
1782942001706331400,5.397331298828125,-0.20574833452701569,0.5649005770683289,0.0857071578502655
1782942001716316400,5.40731640625,-0.11071084439754486,0.7651752829551697,-0.08161301165819168
1782942001726302500,5.417302490234375,-0.020176146179437637,0.8768802285194397,-0.347427636384964
1782942001736287200,5.427287353515625,0.04624587669968605,0.9077416658401489,-0.6828404068946838
1782942001746272300,5.437272216796875,0.06437800824642181,0.9098743200302124,-1.053503155708313
1782942001756257300,5.44725732421875,0.03139594569802284,0.8643794655799866,-1.4351420402526855
1782942001766242600,5.45724267578125,-0.0733906552195549,0.7627809047698975,-1.7562180757522583
1782942001776227600,5.4672275390625,-0.23290447890758514,0.5872551202774048,-1.9459071159362793
1782942001786212400,5.47721240234375,-0.4312439262866974,0.3269641697406769,-1.9665907621383667
1782942001796197400,5.487197265625,-0.6402407288551331,-0.0467303991317749,-1.8008110523223877
1782942001806182400,5.497182373046875,-0.800955593585968,-0.4644125998020172,-1.5323328971862793
1782942001816168200,5.507168212890625,-0.8726480007171631,-0.8192757964134216,-1.3170922994613647
1782942001826153200,5.5171533203125,-0.8363088965415955,-1.087952733039856,-1.2484344244003296
1782942001836138500,5.527138427734375,-0.6980017423629761,-1.2096055746078491,-1.2773869037628174
1782942001846123500,5.53712353515625,-0.4761021137237549,-1.2520649433135986,-1.3418141603469849
1782942001856108500,5.547108642578125,-0.1987171769142151,-1.2744711637496948,-1.3736625909805298
1782942001866093300,5.55709326171875,0.11536911875009537,-1.2968875169754028,-1.342961072921753
1782942001876078300,5.567078369140625,0.44630247354507446,-1.3217030763626099,-1.2435338497161865
1782942001886063400,5.5770634765625,0.781305730342865,-1.3562804460525513,-1.0804640054702759
1782942001896048400,5.58704833984375,1.0966449975967407,-1.4071764945983887,-0.8766037225723267
1782942001906034400,5.597034423828125,1.3718749284744263,-1.470374584197998,-0.6575722694396973
1782942001916019500,5.60701953125,1.5837185382843018,-1.5083845853805542,-0.454228937625885
1782942001926004500,5.61700439453125,1.7423568964004517,-1.4936338663101196,-0.2949732542037964
1782942001935989500,5.626989501953125,1.856735348701477,-1.4611557722091675,-0.1840801239013672
1782942001945974300,5.636974365234375,1.9114457368850708,-1.4130679368972778,-0.13489793241024017
1782942001955959300,5.646959228515625,1.913719892501831,-1.3682687282562256,-0.11803882569074631
1782942001965944300,5.6569443359375,1.8941196203231812,-1.349320888519287,-0.1103295162320137
1782942001975929600,5.6669296875,1.867058515548706,-1.3174585103988647,-0.07517924159765244
1782942001985914400,5.676914306640625,1.8315519094467163,-1.1765536069869995,-0.008821261115372181
1782942001995899400,5.6868994140625,1.7877352237701416,-0.8715746998786926,0.0570853166282177
1782942002005885400,5.696885498046875,1.6888864040374756,-0.4236997365951538,0.009672528132796288
1782942002015870200,5.7068701171875,1.4648407697677612,0.18028956651687622,-0.12252571433782578
1782942002025855200,5.716855224609375,1.104263424873352,0.7403568625450134,-0.19790488481521606
1782942002035840300,5.72684033203125,0.7446771860122681,0.7793538570404053,-0.17786523699760437
1782942002045825500,5.736825439453125,0.5902228951454163,-0.06240874156355858,-0.2988071143627167
1782942002055810600,5.746810546875,0.5664471983909607,-1.8535683155059814,-1.0252329111099243
1782942002065795300,5.75679541015625,0.14661847054958344,-4.595513820648193,-2.6999549865722656
1782942002075780400,5.7667802734375,-0.7473423480987549,-6.283208847045898,-4.660472869873047
1782942002085765400,5.776765380859375,-1.6617306470870972,-5.202862739562988,-5.252880096435547
1782942002095751200,5.786751220703125,-2.5945661067962646,-1.3058725595474243,-2.955836296081543
1782942002105736400,5.796736328125,-2.9443440437316895,4.483884334564209,0.5743147134780884
1782942002115721500,5.806721435546875,-2.2321763038635254,7.6272172927856445,2.365149736404419
1782942002125706500,5.81670654296875,-1.2353641986846924,8.18740463256836,3.0696494579315186
1782942002135691500,5.82669140625,-0.6353445649147034,6.924290180206299,3.6236889362335205
1782942002145676300,5.83667626953125,-0.36155247688293457,4.398309230804443,4.019883155822754
1782942002155661300,5.846661376953125,-0.26988041400909424,1.8344922065734863,4.148181915283203
1782942002165646300,5.856646240234375,-0.25429850816726685,0.12844400107860565,4.060957431793213
1782942002175631400,5.86663134765625,-0.22853590548038483,-0.5229379534721375,3.885777711868286
1782942002185617400,5.876617431640625,-0.203827366232872,-0.1515902429819107,3.5758142471313477
1782942002195602400,5.8866025390625,-0.2010607123374939,0.7476893067359924,2.950939178466797
1782942002205587500,5.89658740234375,-0.166868656873703,1.5434236526489258,2.244445562362671
1782942002215572500,5.906572509765625,-0.14155882596969604,1.9072831869125366,1.7286022901535034
1782942002225557200,5.91655712890625,-0.24559441208839417,1.6374025344848633,1.5078086853027344
1782942002235542300,5.926542236328125,-0.5000837445259094,0.7986932992935181,1.6128045320510864
1782942002245527300,5.93652734375,-0.7681945562362671,-0.3516350984573364,1.7992923259735107
1782942002255512600,5.9465126953125,-0.9306268692016602,-1.4485373497009277,1.8494237661361694
1782942002265497300,5.956497314453125,-0.9373282194137573,-2.239811420440674,1.761061429977417
1782942002275483400,5.9664833984375,-0.8435834646224976,-2.7616701126098633,1.7245432138442993
1782942002285468400,5.976468505859375,-0.6917601227760315,-3.007380485534668,1.7924753427505493
1782942002295453200,5.986453125,-0.475220650434494,-2.8888165950775146,1.9144524335861206
1782942002305438200,5.996438232421875,-0.24286997318267822,-2.5295469760894775,2.094980478286743
1782942002315423500,6.006423583984375,-0.03984330967068672,-2.0919249057769775,2.3199551105499268
1782942002325408500,6.016408447265625,0.11072143167257309,-1.6995744705200195,2.5303213596343994
1782942002335393500,6.0263935546875,0.22372233867645264,-1.3512576818466187,2.6745779514312744
1782942002345378300,6.03637841796875,0.3320746421813965,-1.007918119430542,2.7007083892822266
1782942002355363300,6.04636328125,0.4599961042404175,-0.6487727761268616,2.569432497024536
1782942002365349400,6.056349365234375,0.5901075601577759,-0.34573379158973694,2.2588117122650146
1782942002375334400,6.06633447265625,0.6918148994445801,-0.11883530020713806,1.8525168895721436
1782942002385319400,6.0763193359375,0.7428621053695679,0.025812961161136627,1.4485915899276733
1782942002395304400,6.086304443359375,0.7197689414024353,0.08749756217002869,1.14870023727417
1782942002405289500,6.09628955078125,0.6634286642074585,0.1118130162358284,0.942013680934906
1782942002415274500,6.1062744140625,0.5986462831497192,0.030553609132766724,0.7839389443397522
1782942002425259300,6.11625927734375,0.5268378853797913,-0.10080547630786896,0.6637251973152161
1782942002435244300,6.126244384765625,0.4921697676181793,-0.2176966816186905,0.5725430846214294
1782942002445229300,6.136229248046875,0.5046223998069763,-0.31718066334724426,0.5179746150970459
1782942002455214600,6.146214599609375,0.5716917514801025,-0.4217143952846527,0.5076801180839539
1782942002465200400,6.156200439453125,0.6744253635406494,-0.5481602549552917,0.48027539253234863
1782942002475185400,6.166185302734375,0.7935196161270142,-0.6905435919761658,0.4124034643173218
1782942002485170400,6.17617041015625,0.9034053683280945,-0.8081042766571045,0.3009517788887024
1782942002495155500,6.186155517578125,0.9915847778320312,-0.8377332091331482,0.1603149175643921
1782942002505140200,6.19614013671875,1.0339961051940918,-0.785735547542572,0.022596746683120728
1782942002515125200,6.206125244140625,1.0527963638305664,-0.700782060623169,-0.09251663833856583
1782942002525110500,6.216110595703125,1.040416955947876,-0.570608913898468,-0.21197539567947388
1782942002535095600,6.226095458984375,0.9907521605491638,-0.3506559133529663,-0.3315567672252655
1782942002545080300,6.236080322265625,0.8817945122718811,-0.09921332448720932,-0.42583638429641724
1782942002555066400,6.24606640625,0.7201701402664185,0.04674192890524864,-0.4493257403373718
1782942002565051400,6.256051513671875,0.530799150466919,-0.003984631970524788,-0.3887782394886017
1782942002575036200,6.2660361328125,0.36162835359573364,-0.24959342181682587,-0.33556613326072693
1782942002585021400,6.276021484375,0.23370635509490967,-0.5433400869369507,-0.3620733916759491
1782942002595006500,6.28600634765625,0.08065923303365707,-0.7413174510002136,-0.46838486194610596
1782942002604991500,6.295991455078125,-0.08340640366077423,-0.7373919486999512,-0.6250439882278442
1782942002614976500,6.3059765625,-0.14977124333381653,-0.4652027189731598,-0.8728785514831543
1782942002624961300,6.315961181640625,-0.025163542479276657,0.18332388997077942,-1.1438242197036743
1782942002634946300,6.3259462890625,0.3690072000026703,1.2455650568008423,-1.2888526916503906
1782942002644931300,6.335931396484375,0.9107770323753357,2.018968105316162,-1.3835011720657349
1782942002654917400,6.34591748046875,1.2636982202529907,1.7318781614303589,-1.5822064876556396
1782942002664902400,6.35590234375,1.1893075704574585,0.375686377286911,-1.6532961130142212
1782942002674887400,6.365887451171875,0.4004729688167572,-1.5606669187545776,-1.629499077796936
1782942002684872400,6.37587255859375,-1.2348647117614746,-3.3494338989257812,-2.1955924034118652
1782942002694857500,6.385857421875,-3.251239061355591,-4.090452671051025,-3.965658664703369
1782942002704842200,6.39584228515625,-4.969244003295898,-4.001704692840576,-6.595513343811035
1782942002714827300,6.4058271484375,-5.985654354095459,-3.110475540161133,-8.694632530212402
1782942002724812300,6.415812255859375,-6.131972312927246,-1.3973426818847656,-8.946113586425781
1782942002734797600,6.425797607421875,-5.38820219039917,0.9956915378570557,-7.654602527618408
1782942002744783400,6.435783447265625,-4.3540472984313965,2.931190013885498,-6.049209117889404
1782942002754768400,6.445768310546875,-3.4855778217315674,4.080635070800781,-4.781409740447998
1782942002764753400,6.45575341796875,-2.7715330123901367,4.59183931350708,-3.8576865196228027
1782942002774738400,6.465738525390625,-2.26841139793396,4.746912002563477,-3.177278518676758
1782942002784723200,6.47572314453125,-1.9898691177368164,4.704802513122559,-2.5141196250915527
1782942002794708500,6.48570849609375,-1.8537254333496094,4.357880115509033,-1.7395075559616089
1782942002804693500,6.495693603515625,-1.7363437414169312,3.7943625450134277,-0.8918896913528442
1782942002814678500,6.505678466796875,-1.536342740058899,3.140012741088867,-0.12663322687149048
1782942002824663300,6.515663330078125,-1.2404474020004272,2.4510958194732666,0.4227185845375061
1782942002834649300,6.5256494140625,-0.9285886287689209,1.8128457069396973,0.6953351497650146
1782942002844634400,6.53563427734375,-0.6334959864616394,1.3402944803237915,0.6852503418922424
1782942002854619400,6.545619384765625,-0.39055007696151733,1.0105273723602295,0.4236595332622528
1782942002864604400,6.5556044921875,-0.2594607472419739,0.7495766878128052,-0.04665657877922058
1782942002874589400,6.56558935546875,-0.2593851387500763,0.5103287696838379,-0.6047685146331787
1782942002884574500,6.575574462890625,-0.3822135925292969,0.318404883146286,-1.1065447330474854
1782942002894559500,6.5855595703125,-0.5659225583076477,0.2008565068244934,-1.4599335193634033
1782942002904544300,6.595544189453125,-0.7263718843460083,0.09294814616441727,-1.64883553981781
1782942002914529300,6.605529296875,-0.8099191784858704,-0.08446477353572845,-1.6722511053085327
1782942002924514300,6.615514404296875,-0.800460934638977,-0.3374411165714264,-1.5325175523757935
1782942002934500400,6.625500244140625,-0.6787404417991638,-0.6220428943634033,-1.2314499616622925
1782942002944485400,6.6354853515625,-0.4670141339302063,-0.8682353496551514,-0.745902419090271
1782942002954470400,6.645470458984375,-0.2088886797428131,-1.0462661981582642,-0.12321968376636505
1782942002964455400,6.655455322265625,0.06334257125854492,-1.1100728511810303,0.5095572471618652
1782942002974440400,6.6654404296875,0.30952849984169006,-1.0702672004699707,1.0051301717758179
1782942002984425200,6.67542529296875,0.49887099862098694,-1.0281075239181519,1.253941535949707
1782942002994410200,6.68541015625,0.608417272567749,-1.078786849975586,1.2446633577346802
1782942003004395500,6.6953955078125,0.6639545559883118,-1.2356408834457397,1.0599592924118042
1782942003014380500,6.705380615234375,0.6410788297653198,-1.4887278079986572,0.8378571271896362
1782942003024366300,6.715366455078125,0.5389436483383179,-1.794400691986084,0.7035027742385864
1782942003034351400,6.725351318359375,0.4080553948879242,-2.0330095291137695,0.719453752040863
1782942003044336400,6.73533642578125,0.3246598243713379,-2.104987621307373,0.8311573266983032
1782942003054321400,6.7453212890625,0.32133832573890686,-1.9341771602630615,1.004926323890686
1782942003064306400,6.755306396484375,0.35125255584716797,-1.5646603107452393,1.2028485536575317
1782942003074291500,6.76529150390625,0.33547765016555786,-1.104949951171875,1.3152174949645996
1782942003084276500,6.7752763671875,0.31115633249282837,-0.6161189675331116,1.2809034585952759
1782942003094261500,6.785261474609375,0.2355629950761795,-0.3743661642074585,1.0897372961044312
1782942003104246300,6.795246337890625,0.12512384355068207,-0.3096473515033722,0.8133821487426758
1782942003114231300,6.805231201171875,0.042871154844760895,-0.21533478796482086,0.5106260776519775
1782942003124217300,6.81521728515625,-0.04496895149350166,-0.21072618663311005,0.18687254190444946
1782942003134202400,6.825202392578125,-0.11947605758905411,-0.2872389853000641,-0.10236085951328278
1782942003144187400,6.8351875,-0.13008663058280945,-0.3735986351966858,-0.3016369640827179
1782942003154172400,6.84517236328125,-0.10201029479503632,-0.4631046950817108,-0.4207591116428375
1782942003164157400,6.855157470703125,-0.0775933712720871,-0.5035051107406616,-0.4657936990261078
1782942003174142500,6.865142578125,-0.0998578816652298,-0.41716209053993225,-0.3890395164489746
1782942003184127200,6.875127197265625,-0.19008684158325195,-0.21500791609287262,-0.18989497423171997
1782942003194112300,6.8851123046875,-0.32950836420059204,0.007723389193415642,0.09769771993160248
1782942003204097300,6.89509716796875,-0.4887070953845978,0.18857333064079285,0.4021095335483551
1782942003214082600,6.90508251953125,-0.6495103240013123,0.3673056960105896,0.693423330783844
1782942003224068400,6.915068359375,-0.7964398264884949,0.44303667545318604,0.9146523475646973
1782942003234053400,6.925053466796875,-0.8908513188362122,0.43151482939720154,1.0244944095611572
1782942003244038400,6.935038330078125,-0.9174475073814392,0.40061017870903015,1.0257021188735962
1782942003254023400,6.9450234375,-0.8934516906738281,0.32167625427246094,0.9579192399978638
1782942003264008200,6.95500830078125,-0.8125261664390564,0.19441497325897217,0.8600755333900452
1782942003273993500,6.964993408203125,-0.6933707594871521,0.057078421115875244,0.7484325766563416
1782942003283978500,6.974978515625,-0.573976993560791,-0.033305004239082336,0.6408925652503967
1782942003293963500,6.984963623046875,-0.47612980008125305,-0.06496809422969818,0.5055437684059143
1782942003303948300,6.9949482421875,-0.4213493764400482,-0.0672413632273674,0.33606547117233276
1782942003313934300,7.004934326171875,-0.39487552642822266,-0.0700560212135315,0.1942279040813446
1782942003323919400,7.01491943359375,-0.385102778673172,-0.0884627252817154,0.148549884557724
1782942003333904400,7.024904296875,-0.3895829916000366,-0.10534699261188507,0.2029140293598175
1782942003343889400,7.034889404296875,-0.4085729122161865,-0.09291908144950867,0.3631444573402405
1782942003353874400,7.04487451171875,-0.4432583451271057,0.012135608121752739,0.5910375118255615
1782942003363859500,7.054859375,-0.49634498357772827,0.18870612978935242,0.8292839527130127
1782942003373844500,7.064844482421875,-0.551633358001709,0.32793018221855164,1.0015451908111572
1782942003383829200,7.074829345703125,-0.5936870574951172,0.37930628657341003,1.075164556503296
1782942003393814300,7.084814208984375,-0.6240390539169312,0.41069552302360535,1.0771054029464722
1782942003403799300,7.09479931640625,-0.6339588165283203,0.4204442799091339,1.0329138040542603
1782942003413785300,7.104785400390625,-0.6383098363876343,0.3716546893119812,0.9585105180740356
1782942003423770400,7.114770263671875,-0.6413511633872986,0.29326215386390686,0.8640042543411255
1782942003433755400,7.12475537109375,-0.6403676867485046,0.2106778621673584,0.7540833950042725
1782942003443740400,7.134740478515625,-0.6390851140022278,0.12392193078994751,0.5971521139144897
1782942003453725400,7.144725341796875,-0.648740828037262,0.05579352378845215,0.3872929513454437
1782942003463710200,7.154710205078125,-0.6631719470024109,0.06571219861507416,0.17220941185951233
1782942003473695200,7.1646953125,-0.6635096073150635,0.10079082101583481,-0.016724826768040657
1782942003483680500,7.174680419921875,-0.6498484015464783,0.09844351559877396,-0.1590295135974884
1782942003493665500,7.18466552734375,-0.6346344947814941,0.09067007899284363,-0.23291637003421783
1782942003503651300,7.1946513671875,-0.6137076616287231,0.1336822658777237,-0.2506785988807678
1782942003513636400,7.20463623046875,-0.5757356286048889,0.22090671956539154,-0.2491721361875534
1782942003523621400,7.214621337890625,-0.5242247581481934,0.33539149165153503,-0.25655999779701233
1782942003533606400,7.2246064453125,-0.4520973563194275,0.42849302291870117,-0.29967090487480164
1782942003543591400,7.23459130859375,-0.3618473410606384,0.42783841490745544,-0.3684267997741699
1782942003553576400,7.244576416015625,-0.27879947423934937,0.3217726945877075,-0.44621536135673523
1782942003563561500,7.2545615234375,-0.23939162492752075,0.21851125359535217,-0.48114725947380066
1782942003573546500,7.26454638671875,-0.23298075795173645,0.14682021737098694,-0.4488893747329712
1782942003583531300,7.27453125,-0.24262379109859467,0.11097940057516098,-0.36589595675468445
1782942003593516300,7.284516357421875,-0.23945046961307526,0.10999277234077454,-0.2623395621776581
1782942003603502300,7.29450244140625,-0.2171560823917389,0.1369333118200302,-0.138567253947258
1782942003613487400,7.3044873046875,-0.161401629447937,0.1662476658821106,-0.024308720603585243
1782942003623472400,7.314472412109375,-0.08079759776592255,0.20242220163345337,0.07714813202619553
1782942003633457400,7.32445751953125,0.0008483617566525936,0.2452511340379715,0.15155035257339478
1782942003643442400,7.3344423828125,0.061696797609329224,0.2858523428440094,0.18970626592636108
1782942003653427500,7.344427490234375,0.10487532615661621,0.34194737672805786,0.17451883852481842
1782942003663412200,7.354412109375,0.1400977522134781,0.40926915407180786,0.12068090587854385
1782942003673397200,7.364397216796875,0.15820884704589844,0.4660496413707733,0.018788838759064674
1782942003683382300,7.37438232421875,0.15668152272701263,0.524458110332489,-0.0485696941614151
1782942003693368300,7.384368408203125,0.0507684126496315,0.5292064547538757,0.03702781721949577
1782942003703353600,7.394353515625,-0.10917704552412033,0.1983952671289444,0.016718551516532898
1782942003713338600,7.404338623046875,-0.23023797571659088,-0.06698760390281677,-0.04435644671320915
1782942003723323600,7.41432373046875,-0.24487444758415222,-0.1464771032333374,-0.1546933352947235
1782942003733308700,7.42430859375,-0.21937863528728485,-0.206915482878685,-0.2721167802810669
1782942003743293700,7.434293701171875,-0.20401912927627563,-0.2500304579734802,-0.35320019721984863
1782942003753278700,7.44427880859375,-0.1770031899213791,-0.21839646995067596,-0.36488065123558044
1782942003763263700,7.454263671875,-0.1482306718826294,-0.16895036399364471,-0.32359713315963745
1782942003773248800,7.464248779296875,-0.11918611079454422,-0.20612367987632751,-0.25791358947753906
