time,seconds_elapsed,z,y,x
1782941968111177700,0.101177734375,0.014272183179855347,-0.004509110935032368,-0.08451062440872192
1782941968121162800,0.111162841796875,0.0007827396038919687,0.0017037773504853249,-0.07510887086391449
1782941968131147500,0.1211474609375,-0.0016899625770747662,0.0038379747420549393,-0.05952683091163635
1782941968141132500,0.131132568359375,0.006339734420180321,0.008917687460780144,-0.0444493442773819
1782941968151117600,0.14111767578125,0.026425477117300034,0.003437289036810398,-0.03275303542613983
1782941968161102600,0.1511025390625,0.04301004856824875,-0.010748038068413734,-0.02269081585109234
1782941968171087600,0.161087646484375,0.05259688198566437,-0.015714474022388458,-0.007983893156051636
1782941968181072600,0.17107275390625,0.060623649507761,-0.015401285141706467,0.006511959247291088
1782941968191057700,0.1810576171875,0.06437764316797256,-0.00957593321800232,0.010826073586940765
1782941968201041700,0.191041748046875,0.06482665240764618,-0.019734028726816177,0.006388448178768158
1782941968211026700,0.201026611328125,0.07044126838445663,-0.058278195559978485,0.005874426104128361
1782941968221011700,0.21101171875,0.07471537590026855,-0.06768768280744553,0.02811075560748577
1782941968230996700,0.220996826171875,0.08211091160774231,-0.04489613324403763,0.07192236185073853
1782941968240981500,0.2309814453125,0.08193088322877884,-0.022801220417022705,0.11224927753210068
1782941968250966500,0.240966552734375,0.07325293123722076,-0.0053148427978158,0.1349477767944336
1782941968260951600,0.25095166015625,0.06259708851575851,0.01861605793237686,0.13475176692008972
1782941968270936600,0.2609365234375,0.0581124983727932,0.03821953758597374,0.10861536115407944
1782941968280921600,0.270921630859375,0.05974315106868744,0.049200814217329025,0.07779353111982346
1782941968290906600,0.28090673828125,0.06385460495948792,0.04132768139243126,0.029813671484589577
1782941968300891600,0.2908916015625,0.07388673722743988,0.025702115148305893,-0.02036374621093273
1782941968310876700,0.300876708984375,0.08444063365459442,0.018276002258062363,-0.06662552058696747
1782941968320860700,0.310860595703125,0.09205221384763718,0.027080148458480835,-0.1034863293170929
1782941968330845700,0.320845703125,0.09206279367208481,0.032322295010089874,-0.1313875913619995
1782941968340830500,0.33083056640625,0.08093877136707306,0.027137119323015213,-0.14512816071510315
1782941968350815500,0.3408154296875,0.06894580274820328,0.0246182419359684,-0.1474343091249466
1782941968360800500,0.350800537109375,0.060198381543159485,0.01572567969560623,-0.13897797465324402
1782941968370785800,0.360785888671875,0.05388375744223595,0.02226538583636284,-0.11791910231113434
1782941968380770600,0.3707705078125,0.04952416196465492,0.03317395970225334,-0.09032368659973145
1782941968390755600,0.380755615234375,0.04681682586669922,0.027273178100585938,-0.06095851957798004
1782941968400740600,0.39074072265625,0.05034472048282623,0.010187136940658092,-0.023120857775211334
1782941968410725600,0.4007255859375,0.05713367089629173,-0.002769061364233494,0.023919589817523956
1782941968420710700,0.410710693359375,0.06448586285114288,0.0026494059711694717,0.06029890477657318
1782941968430695400,0.4206953125,0.07487744837999344,0.01623896323144436,0.08410212397575378
1782941968440679400,0.430679443359375,0.08396868407726288,0.020796697586774826,0.08722015470266342
1782941968450664400,0.44066455078125,0.09347747266292572,0.01659148931503296,0.0722670629620552
1782941968460649500,0.4506494140625,0.09238797426223755,0.0025944476947188377,0.04905921220779419
1782941968470634800,0.460634765625,0.0848161056637764,-0.016389066353440285,0.023417528718709946
1782941968480619800,0.470619873046875,0.06640087813138962,-0.022715937346220016,0.003191352356225252
1782941968490604500,0.4806044921875,0.04280237480998039,-0.012897629290819168,-0.02258242666721344
1782941968500589600,0.490589599609375,0.019169215112924576,0.01332811638712883,-0.05430946126580238
1782941968510574600,0.50057470703125,0.0018531002569943666,0.04841374605894089,-0.08328468352556229
1782941968520559600,0.5105595703125,-0.009061066433787346,0.07750371843576431,-0.11394033581018448
1782941968530544600,0.520544677734375,-0.007051244843751192,0.09485925734043121,-0.14039283990859985
1782941968540529400,0.530529296875,-0.00021437788382172585,0.0868213027715683,-0.1540447324514389
1782941968550514700,0.5405146484375,-0.0003769868053495884,0.07962460070848465,-0.14831334352493286
1782941968560499700,0.550499755859375,-0.00038071535527706146,0.08855337649583817,-0.12897692620754242
1782941968570483700,0.560483642578125,0.000798532273620367,0.11486861109733582,-0.11129114031791687
1782941968580468700,0.57046875,0.010524662211537361,0.12060052156448364,-0.09540697932243347
1782941968590453500,0.58045361328125,0.022613778710365295,0.11555998027324677,-0.08530063927173615
1782941968600438500,0.5904384765625,0.029430139809846878,0.09707604348659515,-0.0847160741686821
1782941968610423600,0.600423583984375,0.032471396028995514,0.0550423339009285,-0.08339852094650269
1782941968620408600,0.61040869140625,0.030330214649438858,-0.0020933905616402626,-0.0780213326215744
1782941968630393600,0.6203935546875,0.018428683280944824,-0.04287539795041084,-0.058931827545166016
1782941968640378600,0.630378662109375,-0.0009791022166609764,-0.06736502796411514,-0.037326667457818985
1782941968650363600,0.64036376953125,-0.020325761288404465,-0.08167965710163116,-0.009923385456204414
1782941968660352300,0.650352294921875,-0.033615197986364365,-0.06765278428792953,0.0062004579231143
1782941968670337300,0.660337158203125,-0.03704146668314934,-0.046995002776384354,0.007152142934501171
1782941968680322300,0.670322265625,-0.02928261272609234,-0.030385401099920273,-0.005001725163310766
1782941968690307300,0.680307373046875,-0.017369385808706284,-0.026068057864904404,-0.03196264058351517
1782941968700291300,0.690291259765625,-0.010989249683916569,-0.03994712233543396,-0.061793506145477295
1782941968710276400,0.7002763671875,-0.012726521119475365,-0.05168797820806503,-0.08967668563127518
1782941968720261400,0.710261474609375,-0.024685179814696312,-0.05786065384745598,-0.10572116822004318
1782941968730246400,0.720246337890625,-0.033365875482559204,-0.0729217380285263,-0.11961712688207626
1782941968740231200,0.730231201171875,-0.03891883045434952,-0.08735180646181107,-0.11384579539299011
1782941968750216200,0.74021630859375,-0.04551570490002632,-0.08831380307674408,-0.09353424608707428
1782941968760201200,0.750201171875,-0.06341400742530823,-0.07654343545436859,-0.06900706142187119
1782941968770186500,0.7601865234375,-0.08515897393226624,-0.07167047262191772,-0.05211025848984718
1782941968780171500,0.770171630859375,-0.10238110274076462,-0.05793255195021629,-0.03030802495777607
1782941968790156300,0.78015625,-0.10510726273059845,-0.028354709967970848,-0.022535067051649094
1782941968800141300,0.790141357421875,-0.09347537159919739,-0.020021678879857063,-0.02264319360256195
1782941968810126300,0.800126220703125,-0.08236513286828995,-0.03148942440748215,-0.033562637865543365
1782941968820111400,0.810111328125,-0.06648443639278412,-0.05010624974966049,-0.05212194100022316
1782941968830095400,0.820095458984375,-0.046320509165525436,-0.09077563136816025,-0.07754196226596832
1782941968840080400,0.830080322265625,-0.03635762631893158,-0.12971369922161102,-0.09053526073694229
1782941968850065200,0.840065185546875,-0.02622726373374462,-0.15815198421478271,-0.09314923733472824
1782941968860050200,0.85005029296875,-0.017964273691177368,-0.16488765180110931,-0.07407967746257782
1782941968870035500,0.860035400390625,-0.002904957626014948,-0.15643858909606934,-0.05154459923505783
1782941968880020500,0.8700205078125,0.012391440570354462,-0.14509831368923187,-0.037003204226493835
1782941968890005200,0.880005126953125,0.02752266451716423,-0.11992044001817703,-0.020388469099998474
1782941968899990300,0.889990234375,0.04692086577415466,-0.07156410068273544,-0.020683547481894493
1782941968909975300,0.899975341796875,0.05959656462073326,-0.03634300082921982,-0.02750551886856556
1782941968919960300,0.909960205078125,0.06386347860097885,-0.0012553203850984573,-0.04223413020372391
1782941968929945300,0.9199453125,0.06542199850082397,0.009794655255973339,-0.07139991223812103
1782941968939930000,0.92993017578125,0.05258103460073471,-0.01959971897304058,-0.1271987408399582
1782941968949915400,0.939915283203125,0.03272666409611702,-0.07369376718997955,-0.19080598652362823
1782941968959899400,0.9498994140625,0.019649744033813477,-0.11748625338077545,-0.24993668496608734
1782941968969884400,0.959884521484375,0.022505871951580048,-0.15184791386127472,-0.287120521068573
1782941968979869400,0.969869384765625,0.0277581587433815,-0.1673395186662674,-0.30630621314048767
1782941968989854200,0.979854248046875,0.023028217256069183,-0.14268392324447632,-0.30743125081062317
1782941968999839200,0.989839111328125,0.02824854478240013,-0.08243949711322784,-0.2972443699836731
1782941969009824300,0.99982421875,0.03866589814424515,0.005292108282446861,-0.2917190194129944
1782941969019809300,1.009809326171875,0.06028597056865692,0.07307195663452148,-0.30965113639831543
1782941969029794300,1.019794189453125,0.09238538146018982,0.08615860342979431,-0.3404122591018677
1782941969039779300,1.029779296875,0.12367699295282364,0.0577932707965374,-0.3715651333332062
1782941969049764400,1.039764404296875,0.14601726830005646,0.01876319758594036,-0.3828393220901489
1782941969059749400,1.049749267578125,0.1541718691587448,0.0162877906113863,-0.3713022470474243
1782941969069734400,1.059734375,0.15860530734062195,0.06170616298913956,-0.34605589509010315
1782941969079719400,1.069719482421875,0.15207257866859436,0.14029711484909058,-0.3327361047267914
1782941969089703400,1.079703369140625,0.1435879021883011,0.24439114332199097,-0.3300766944885254
1782941969099688200,1.089688232421875,0.14612030982971191,0.36718443036079407,-0.33377474546432495
1782941969109673200,1.099673095703125,0.17069698870182037,0.4748912453651428,-0.34761106967926025
1782941969119658200,1.109658203125,0.19253571331501007,0.5003982186317444,-0.36828094720840454
1782941969129643300,1.119643310546875,0.18247096240520477,0.40552347898483276,-0.41973358392715454
1782941969139628300,1.129628173828125,0.1352749615907669,0.24245624244213104,-0.4711940884590149
1782941969149613300,1.13961328125,0.09241365641355515,0.07659056037664413,-0.44386574625968933
1782941969159598300,1.149598388671875,0.09266345947980881,0.011951110325753689,-0.3111628293991089
1782941969169583400,1.159583251953125,0.1405167132616043,0.07947441190481186,-0.06963512301445007
1782941969179568400,1.169568359375,0.23506160080432892,0.16576935350894928,0.2574215531349182
1782941969189553200,1.17955322265625,0.35519230365753174,0.22230558097362518,0.6287446022033691
1782941969199538200,1.1895380859375,0.48961055278778076,0.23712103068828583,0.9981756210327148
1782941969209523200,1.199523193359375,0.6138206124305725,0.19890768826007843,1.2956687211990356
1782941969219508500,1.209508544921875,0.729519784450531,0.17043663561344147,1.446155071258545
1782941969229492200,1.2194921875,0.8149474263191223,0.20608700811862946,1.3988251686096191
1782941969239477500,1.2294775390625,0.8718512058258057,0.28598475456237793,1.1552486419677734
1782941969249462300,1.239462158203125,0.9152921438217163,0.31088054180145264,0.774959146976471
1782941969259447300,1.249447265625,0.9272175431251526,0.0885622426867485,0.32655441761016846
1782941969269432300,1.259432373046875,0.9002028107643127,-0.3148951232433319,-0.09486857056617737
1782941969279417300,1.269417236328125,0.7898403406143188,-0.5732068419456482,-0.3660699725151062
1782941969289402400,1.27940234375,0.608059287071228,-0.5437574982643127,-0.4650317132472992
1782941969299387100,1.28938720703125,0.4050353467464447,-0.2979479730129242,-0.3896152675151825
1782941969309372400,1.299372314453125,0.21444959938526154,0.07118427753448486,-0.17382453382015228
1782941969319357400,1.309357421875,0.08779098093509674,0.3215384781360626,0.16363339126110077
1782941969329342500,1.319342529296875,0.005295650102198124,0.2927878201007843,0.5292463302612305
1782941969339327200,1.3293271484375,-0.12016160786151886,-0.08198260515928268,0.8039700388908386
1782941969349312300,1.339312255859375,-0.3529561758041382,-0.7253255844116211,0.843952476978302
1782941969359297300,1.34929736328125,-0.5754334330558777,-1.3535127639770508,0.6356584429740906
1782941969369282300,1.3592822265625,-0.6688389182090759,-1.7044824361801147,0.36784109473228455
1782941969379266300,1.369266357421875,-0.5724836587905884,-1.6352615356445312,0.2133878767490387
1782941969389251300,1.379251220703125,-0.28711625933647156,-1.1477028131484985,0.2941780388355255
1782941969399236000,1.389236083984375,0.057880014181137085,-0.5522943139076233,0.619641900062561
1782941969409221400,1.399221435546875,0.3112102746963501,-0.05181959643959999,1.0523779392242432
1782941969419206400,1.409206298828125,0.4058806002140045,0.21572555601596832,1.3123890161514282
1782941969429191400,1.41919140625,0.34388065338134766,0.1516622006893158,1.2037550210952759
1782941969439176400,1.429176513671875,0.146654412150383,0.030499283224344254,0.8272591233253479
1782941969449161200,1.4391611328125,-0.11135195195674896,0.17605455219745636,0.3695337772369385
1782941969459146200,1.449146240234375,-0.3212079703807831,0.5244303345680237,-0.07097091525793076
1782941969469131300,1.45913134765625,-0.4251058101654053,0.8750466108322144,-0.47338926792144775
1782941969479116300,1.4691162109375,-0.384182870388031,1.0456974506378174,-0.8831424713134766
1782941969489101300,1.479101318359375,-0.24057215452194214,0.9493061900138855,-1.2685472965240479
1782941969499086300,1.48908642578125,-0.07148299366235733,0.5654189586639404,-1.6196595430374146
1782941969509071400,1.4990712890625,0.011354921385645866,0.0015178313478827477,-1.9098085165023804
1782941969519055400,1.509055419921875,-0.04438956454396248,-0.48681509494781494,-2.101994276046753
1782941969529040400,1.519040283203125,-0.1873914897441864,-0.7275087237358093,-2.1759865283966064
1782941969539025400,1.529025390625,-0.3337295353412628,-0.6600175499916077,-2.1298844814300537
1782941969549010200,1.53901025390625,-0.4085918068885803,-0.3546960949897766,-1.9242284297943115
1782941969558995200,1.5489951171875,-0.363373726606369,-0.08989214897155762,-1.5705240964889526
1782941969568980200,1.558980224609375,-0.2349473088979721,0.12211114168167114,-1.1593862771987915
1782941969578965500,1.568965576171875,-0.04561440274119377,0.3087529242038727,-0.765204668045044
1782941969588950300,1.5789501953125,0.214784175157547,0.47088494896888733,-0.41643476486206055
1782941969598935300,1.588935302734375,0.46049752831459045,0.45813268423080444,-0.13297587633132935
1782941969608920300,1.59892041015625,0.6312493681907654,0.2997519075870514,0.055842816829681396
1782941969618905300,1.6089052734375,0.7743204832077026,0.19405823945999146,0.13031251728534698
1782941969628890400,1.618890380859375,0.9388737082481384,0.21489043533802032,0.12349795550107956
1782941969638875100,1.628875244140625,1.1093274354934692,0.25636225938796997,0.13415858149528503
1782941969648860200,1.638860107421875,1.225003719329834,0.4127598702907562,0.21854521334171295
1782941969658841300,1.64884130859375,1.2582743167877197,0.5905929803848267,0.36623427271842957
1782941969668825300,1.658825439453125,1.19461190700531,0.7172244787216187,0.5726383924484253
1782941969678810400,1.668810302734375,1.0571637153625488,0.7247827649116516,0.8680641651153564
1782941969688795400,1.67879541015625,0.9350144863128662,0.6681665778160095,1.2529385089874268
1782941969698780400,1.688780517578125,0.854927122592926,0.5143964290618896,1.6399163007736206
1782941969708765200,1.69876513671875,0.7944559454917908,0.26480817794799805,1.9438755512237549
1782941969718750200,1.708750244140625,0.7455443143844604,-0.018151096999645233,2.0909194946289062
1782941969728735200,1.7187353515625,0.717059314250946,-0.24005728960037231,2.0688798427581787
1782941969738720500,1.728720458984375,0.7212202548980713,-0.2886759638786316,1.8477829694747925
1782941969748705300,1.738705322265625,0.7383074164390564,-0.1849260926246643,1.4716837406158447
1782941969758690300,1.748690185546875,0.748941957950592,0.05402018129825592,1.0671762228012085
1782941969768675300,1.75867529296875,0.733638346195221,0.3784290552139282,0.7506943345069885
1782941969778660400,1.768660400390625,0.6685831546783447,0.6916740536689758,0.545116126537323
1782941969788645400,1.778645263671875,0.5721359252929688,0.8706330060958862,0.43734848499298096
1782941969798630100,1.788630126953125,0.4815056324005127,0.8841227293014526,0.427213579416275
1782941969808615200,1.798615234375,0.38040968775749207,0.7514616847038269,0.5194768905639648
1782941969818600400,1.808600341796875,0.267069548368454,0.4832872748374939,0.6924822330474854
1782941969828584200,1.818584228515625,0.14968958497047424,0.08201085776090622,0.9274405837059021
1782941969838569500,1.828569580078125,0.051915351301431656,-0.3548833727836609,1.1550577878952026
1782941969848554500,1.838554443359375,0.0023675719276070595,-0.7531968951225281,1.3076728582382202
1782941969858539300,1.848539306640625,0.022331692278385162,-1.0052924156188965,1.3803913593292236
1782941969868524300,1.858524169921875,0.09227301925420761,-1.014156699180603,1.400747299194336
1782941969878509300,1.86850927734375,0.17995546758174896,-0.7472139000892639,1.360763669013977
1782941969888494300,1.878494384765625,0.2413908690214157,-0.30781421065330505,1.2787268161773682
1782941969898479000,1.88847900390625,0.1781974881887436,0.20116372406482697,1.1646093130111694
1782941969908464000,1.898464111328125,-0.012174051254987717,0.6268261075019836,1.0139284133911133
1782941969918449400,1.908449462890625,-0.23692886531352997,0.813888430595398,0.7587781548500061
1782941969928434400,1.918434326171875,-0.4506198763847351,0.8418546915054321,0.4615768790245056
1782941969938419500,1.92841943359375,-0.5959925055503845,0.7256056070327759,0.25177305936813354
1782941969948404200,1.938404296875,-0.6060017943382263,0.3936395049095154,0.18238574266433716
1782941969958389200,1.94838916015625,-0.49458977580070496,-0.038646407425403595,0.257565438747406
1782941969968374300,1.958374267578125,-0.2824101746082306,-0.4125005304813385,0.4310121536254883
1782941969978359300,1.968359375,-0.036207858473062515,-0.5940588712692261,0.6409728527069092
1782941969988344300,1.97834423828125,0.20383378863334656,-0.5926571488380432,0.7654348015785217
1782941969998328300,1.988328369140625,0.44183409214019775,-0.5042756199836731,0.6634130477905273
1782941970008313300,1.998313232421875,0.6606119275093079,-0.4391319453716278,0.2874900996685028
1782941970018298400,2.00829833984375,0.811075747013092,-0.35621094703674316,-0.2565425634384155
1782941970028283400,2.018283447265625,0.9240213632583618,-0.1416483074426651,-0.7174574136734009
1782941970038268400,2.028268310546875,0.938722550868988,-0.17845559120178223,-0.957961916923523
1782941970048253200,2.038253173828125,0.7814528346061707,-0.7465481758117676,-1.0740009546279907
1782941970058238200,2.04823828125,0.5726559162139893,-1.6935747861862183,-1.073576807975769
1782941970068223200,2.05822314453125,0.5491865873336792,-2.4723312854766846,-0.8777585625648499
1782941970078208300,2.068208251953125,0.564299464225769,-0.9708648324012756,-0.27670973539352417
1782941970088193500,2.078193603515625,-0.13821354508399963,1.2376779317855835,0.10684529691934586
1782941970098178300,2.08817822265625,-1.0480852127075195,1.3591021299362183,-0.9750798940658569
1782941970108163300,2.098163330078125,-1.248130202293396,1.9819444417953491,-1.935518503189087
1782941970118148400,2.1081484375,-1.4064558744430542,2.5742955207824707,-2.5289206504821777
1782941970128133400,2.11813330078125,-1.6688653230667114,3.1036198139190674,-2.804415225982666
1782941970138118100,2.1281181640625,-1.824934720993042,2.9643964767456055,-3.0131566524505615
1782941970148103200,2.138103271484375,-1.6418522596359253,2.0801243782043457,-3.2824747562408447
1782941970158088200,2.148088134765625,-1.1951805353164673,1.053389549255371,-2.952828884124756
1782941970168073500,2.158073486328125,-0.6476948261260986,0.07821326702833176,-1.9558366537094116
1782941970178057200,2.16805712890625,-0.06306541711091995,-0.6916735768318176,-0.9363538026809692
1782941970188042500,2.17804248046875,0.3110661506652832,-1.6377956867218018,-0.49908554553985596
1782941970198027300,2.18802734375,0.30637019872665405,-2.1948888301849365,-0.6523589491844177
1782941970208012300,2.19801220703125,-0.010512607172131538,-2.643953561782837,-1.3701636791229248
1782941970217997300,2.207997314453125,-0.3953029215335846,-2.8110008239746094,-2.1965491771698
1782941970227982300,2.217982421875,-0.5934681296348572,-2.4756240844726562,-2.617043972015381
1782941970237967400,2.22796728515625,-0.6986954808235168,-1.6552504301071167,-2.4384968280792236
1782941970247952100,2.2379521484375,-0.758843183517456,-0.44319766759872437,-1.849534511566162
1782941970257937200,2.247937255859375,-0.7044387459754944,0.6057330369949341,-1.2406418323516846
1782941970267922400,2.25792236328125,-0.6103823781013489,1.2323545217514038,-0.7892715334892273
1782941970277907500,2.267907470703125,-0.6535058617591858,1.0844308137893677,-0.49775874614715576
1782941970287892200,2.277892333984375,-0.6791775226593018,0.26162827014923096,-0.06891908496618271
1782941970297877200,2.287877197265625,-0.6272842288017273,-0.4193422794342041,0.647409200668335
1782941970307862300,2.2978623046875,-0.4862251877784729,-0.5714445114135742,1.2382957935333252
1782941970317847300,2.307847412109375,-0.30944880843162537,-0.24242186546325684,1.396336317062378
1782941970327832300,2.317832275390625,-0.035782407969236374,0.013043408282101154,1.1355990171432495
1782941970337817000,2.327817138671875,0.24600639939308167,0.016763046383857727,0.9118587970733643
1782941970347802400,2.33780224609375,0.508418619632721,-0.09557734429836273,1.0309571027755737
1782941970357786400,2.347786376953125,0.741239070892334,-0.2736203074455261,1.3290992975234985
1782941970367771400,2.357771484375,0.9724991917610168,-0.834419310092926,1.4672037363052368
1782941970377756400,2.36775634765625,1.1764817237854004,-1.2835824489593506,1.3497512340545654
1782941970387741400,2.377741455078125,1.3229111433029175,-1.091878890991211,1.1119388341903687
1782941970397726200,2.387726318359375,1.19512939453125,-0.3699697256088257,0.741163432598114
1782941970407711200,2.397711181640625,0.8905236721038818,0.4905149042606354,0.23363779485225677
1782941970417696300,2.4076962890625,0.5984968543052673,0.979316771030426,-0.2470417469739914
1782941970427681300,2.417681396484375,0.43729445338249207,1.1907225847244263,-0.5113793611526489
1782941970437666300,2.427666259765625,0.34545934200286865,1.1894559860229492,-0.6537772417068481
1782941970447651300,2.4376513671875,0.21853458881378174,1.0010216236114502,-0.8080638647079468
1782941970457636400,2.44763623046875,-0.03330084681510925,0.7403208613395691,-0.9414557814598083
1782941970467621400,2.457621337890625,-0.3757506310939789,0.4912653863430023,-0.944242537021637
1782941970477606400,2.4676064453125,-0.6046532988548279,0.3510880768299103,-0.7733530402183533
1782941970487591200,2.477591064453125,-0.6501784920692444,0.3780345320701599,-0.5021410584449768
1782941970497576200,2.487576171875,-0.5983578562736511,0.5329921245574951,-0.26295509934425354
1782941970507561200,2.497561279296875,-0.5476238131523132,0.7726407051086426,-0.03701641410589218
1782941970517546500,2.50754638671875,-0.6103358864784241,1.0593146085739136,0.15436074137687683
1782941970527531300,2.51753125,-0.8098452091217041,1.0826804637908936,0.2673273980617523
1782941970537516300,2.527516357421875,-0.864906907081604,0.7358863949775696,0.38423457741737366
1782941970547500300,2.537500244140625,-0.7782710790634155,0.309442400932312,0.7622358798980713
1782941970557485300,2.5474853515625,-0.8445230722427368,0.001982058398425579,0.9158209562301636
1782941970567470300,2.55747021484375,-0.9410918354988098,-0.3176790773868561,0.8831327557563782
1782941970577455400,2.567455322265625,-0.8407958745956421,-0.5878311991691589,0.8441006541252136
1782941970587440000,2.577440185546875,-0.5264049768447876,-0.6070026159286499,0.8569904565811157
1782941970597425200,2.587425048828125,-0.349351167678833,-0.47692635655403137,0.8301250338554382
1782941970607410200,2.59741015625,-0.396668404340744,-0.29966118931770325,0.695782482624054
1782941970617395500,2.6073955078125,-0.4831521511077881,-0.19539682567119598,0.4931716024875641
1782941970627380500,2.61738037109375,-0.5022320747375488,-0.09602249413728714,0.29675620794296265
1782941970637365200,2.627365234375,-0.4590955376625061,-0.06908408552408218,0.13355718553066254
1782941970647350300,2.637350341796875,-0.39439675211906433,-0.1341571807861328,-0.005401812959462404
1782941970657335300,2.647335205078125,-0.3498212993144989,-0.22370465099811554,-0.11047416925430298
1782941970667321000,2.657321044921875,-0.32720401883125305,-0.29588672518730164,-0.14223632216453552
1782941970677305900,2.667305908203125,-0.2769613564014435,-0.37078654766082764,-0.09888432174921036
1782941970687291000,2.677290771484375,-0.17489640414714813,-0.4514440894126892,-0.02329561486840248
1782941970697276000,2.68727587890625,-0.05897911638021469,-0.5006790161132812,0.07874179631471634
1782941970707261000,2.697260986328125,0.042514652013778687,-0.5200393795967102,0.19642317295074463
1782941970717245700,2.70724560546875,0.12277726829051971,-0.4863320291042328,0.326444536447525
1782941970727230700,2.717230712890625,0.1882840394973755,-0.40985819697380066,0.4615773856639862
1782941970737215700,2.7272158203125,0.21446186304092407,-0.2975521683692932,0.6062799692153931
1782941970747201000,2.737200927734375,0.17961914837360382,-0.10523947328329086,0.7502970695495605
1782941970757184800,2.747184814453125,0.14337272942066193,0.12056463211774826,0.8784917593002319
1782941970767170000,2.757170166015625,0.0887838676571846,0.32632580399513245,0.9771518707275391
1782941970777154800,2.76715478515625,0.03212511166930199,0.4502227306365967,1.035753607749939
1782941970787139800,2.777139892578125,-0.010790152475237846,0.47469040751457214,1.0253256559371948
1782941970797124900,2.787124755859375,-0.003768462222069502,0.34134459495544434,0.9063899517059326
1782941970807110000,2.79710986328125,0.05588362365961075,0.1498149335384369,0.7078755497932434
1782941970817095000,2.807094970703125,0.11672380566596985,-0.08493579924106598,0.4692329168319702
1782941970827079700,2.81707958984375,0.12759973108768463,-0.2691479027271271,0.2621440291404724
1782941970837064700,2.827064697265625,0.09607776999473572,-0.3826827108860016,0.15670335292816162
1782941970847050000,2.837050048828125,0.06542789936065674,-0.4183667302131653,0.1643209606409073
1782941970857035000,2.847034912109375,0.06483881175518036,-0.4488431513309479,0.25797712802886963
1782941970867019800,2.857019775390625,0.036267608404159546,-0.4645400047302246,0.37100136280059814
1782941970877004800,2.8670048828125,-0.05127342417836189,-0.43702584505081177,0.4971555769443512
1782941970886989800,2.87698974609375,-0.20385123789310455,-0.3931162655353546,0.5625078082084656
1782941970896974800,2.886974853515625,-0.37925636768341064,-0.41111230850219727,0.4579784572124481
1782941970906960000,2.8969599609375,-0.4716976583003998,-0.4590093195438385,0.16147346794605255
1782941970916944600,2.906944580078125,-0.4119882583618164,-0.5048149228096008,-0.21405461430549622
1782941970926930000,2.916929931640625,-0.21277408301830292,-0.5713916420936584,-0.5360729694366455
1782941970936915000,2.9269150390625,0.09147236496210098,-0.6975780725479126,-0.8302066326141357
1782941970946900000,2.93689990234375,0.30002763867378235,-0.6620917320251465,-1.0083836317062378
1782941970956884700,2.946884765625,0.12316606193780899,-0.5514493584632874,-1.0800909996032715
1782941970966869800,2.956869873046875,-0.3932344615459442,-0.6458874940872192,-1.1761832237243652
1782941970976854800,2.966854736328125,-0.9175251126289368,-1.0678576231002808,-1.4651838541030884
1782941970986838800,2.9768388671875,-1.1997169256210327,-1.4498813152313232,-1.8771188259124756
1782941970996823800,2.98682373046875,-1.2829424142837524,-1.2320916652679443,-2.247605085372925
1782941971006808800,2.996808837890625,-1.1970852613449097,-0.6102938652038574,-2.5019192695617676
1782941971016793900,3.0067939453125,-0.8621459007263184,0.31345149874687195,-2.399669885635376
1782941971026779000,3.01677880859375,-0.5987557768821716,1.1335409879684448,-1.9980422258377075
1782941971036764000,3.026763916015625,-0.46424564719200134,1.5130949020385742,-1.3976454734802246
1782941971046749000,3.0367490234375,-0.3594633936882019,1.1152092218399048,-0.930506706237793
1782941971056734000,3.04673388671875,-0.23058848083019257,0.4947451651096344,-0.7246595621109009
1782941971066718700,3.05671875,-0.14140300452709198,0.23765724897384644,-0.6924126148223877
1782941971076703700,3.066703857421875,-0.11834882199764252,0.03544503077864647,-0.7850344181060791
1782941971086688800,3.076688720703125,-0.10409894585609436,-0.0189247727394104,-0.8494874835014343
1782941971096674000,3.086674072265625,-0.047264695167541504,0.1622399538755417,-0.6425918340682983
1782941971106658800,3.096658935546875,-0.013718519359827042,0.2853985130786896,0.10819269716739655
1782941971116643800,3.106643798828125,0.11205857992172241,0.08798183500766754,1.1849087476730347
1782941971126628900,3.11662890625,0.28846895694732666,-0.2062709480524063,2.1308751106262207
1782941971136614000,3.12661376953125,0.3339783847332001,-0.27079853415489197,2.6722261905670166
1782941971146599000,3.136598876953125,0.2771061956882477,0.11779046803712845,2.691661834716797
1782941971156583700,3.146583740234375,0.16588671505451202,0.8487048745155334,2.2778799533843994
1782941971166568700,3.156568603515625,0.03876715525984764,1.7303098440170288,1.6128724813461304
1782941971176554000,3.166553955078125,-0.09968552738428116,2.428964376449585,0.911054253578186
1782941971186539000,3.1765390625,-0.15113258361816406,2.820331335067749,0.33571740984916687
1782941971196524000,3.18652392578125,-0.019725553691387177,2.701519727706909,0.01859830692410469
1782941971206508800,3.1965087890625,0.261839359998703,2.2150800228118896,-0.012245788238942623
1782941971216493800,3.206493896484375,0.5893701314926147,1.510286808013916,0.1512930691242218
1782941971226478800,3.216478759765625,0.8522985577583313,0.7542243003845215,0.3532053828239441
1782941971236462800,3.226462890625,0.9817058444023132,0.11918821930885315,0.42408567667007446
1782941971246447900,3.23644775390625,0.9466269612312317,-0.19230930507183075,0.3153369426727295
1782941971256433000,3.246432861328125,0.7923651933670044,-0.30334049463272095,0.04851456731557846
1782941971266417700,3.256417724609375,0.579451858997345,-0.5036990642547607,-0.2516070306301117
1782941971276403000,3.26640283203125,0.3674650490283966,-0.8737919330596924,-0.5181801319122314
1782941971286388000,3.276387939453125,0.15171217918395996,-1.3863670825958252,-0.6919480562210083
1782941971296373000,3.286373046875,-0.07122315466403961,-1.872776746749878,-0.8416514992713928
1782941971306357800,3.296357666015625,-0.2643040716648102,-2.139991283416748,-1.0788182020187378
1782941971316342800,3.3063427734375,-0.5551518797874451,-2.0488648414611816,-1.3353042602539062
1782941971326327800,3.316327880859375,-0.8551747798919678,-1.7684825658798218,-1.5348564386367798
1782941971336312800,3.326312744140625,-1.111068606376648,-1.3395527601242065,-1.606623888015747
1782941971346297900,3.3362978515625,-1.2862564325332642,-0.7862359285354614,-1.5171523094177246
1782941971356283000,3.346282958984375,-1.3492878675460815,-0.2397659718990326,-1.2558916807174683
1782941971366268000,3.356267822265625,-1.3109344244003296,0.39381834864616394,-0.9136374592781067
1782941971376253000,3.3662529296875,-1.169904351234436,0.9568284749984741,-0.5152746438980103
1782941971386238000,3.376238037109375,-0.99201500415802,1.3476136922836304,-0.0816459208726883
1782941971396222700,3.38622265625,-0.8846200704574585,1.4936052560806274,0.445557177066803
1782941971406207700,3.396207763671875,-0.8383463621139526,1.4224570989608765,0.952294647693634
1782941971416192800,3.40619287109375,-0.8226621747016907,1.3135039806365967,1.342836856842041
1782941971426177800,3.416177734375,-0.8360268473625183,1.2041442394256592,1.5748475790023804
1782941971436163000,3.4261630859375,-0.8907540440559387,1.0508449077606201,1.7222665548324585
1782941971446147800,3.43614794921875,-0.9560385346412659,0.8224878907203674,1.768405556678772
1782941971456132900,3.4461328125,-1.024987816810608,0.5282320380210876,1.7034896612167358
1782941971466118000,3.456117919921875,-1.0851826667785645,0.20399810373783112,1.5402133464813232
1782941971476103000,3.46610302734375,-1.1155424118041992,-0.09238722175359726,1.317659854888916
1782941971486087700,3.476087646484375,-1.096791386604309,-0.3111327588558197,1.0822867155075073
1782941971496072700,3.48607275390625,-1.0164999961853027,-0.48670002818107605,0.8624634742736816
1782941971506057700,3.4960576171875,-0.8745372891426086,-0.625401496887207,0.6761683821678162
1782941971516043000,3.50604296875,-0.7088258266448975,-0.7040920257568359,0.5144425630569458
1782941971526027000,3.516027099609375,-0.5270972847938538,-0.6912448406219482,0.3711615204811096
1782941971536012000,3.526011962890625,-0.3641243577003479,-0.5645732283592224,0.23754329979419708
1782941971545996800,3.535996826171875,-0.23528483510017395,-0.36111804842948914,0.10848099738359451
1782941971555981800,3.54598193359375,-0.14321349561214447,-0.13464230298995972,-0.013591913506388664
1782941971565966800,3.555966796875,-0.0658029094338417,0.06108932942152023,-0.10128583759069443
1782941971575952000,3.565951904296875,0.01691487804055214,0.1845359057188034,-0.12135621160268784
1782941971585937000,3.57593701171875,0.09498231112957001,0.2302234172821045,-0.07994120568037033
1782941971595921700,3.585921630859375,0.16364338994026184,0.23957669734954834,0.00670367619022727
1782941971605907000,3.595906982421875,0.2226986587047577,0.25292912125587463,0.12904052436351776
1782941971615892000,3.60589208984375,0.28094249963760376,0.24454575777053833,0.27587389945983887
1782941971625877000,3.615876953125,0.2964463531970978,0.25775185227394104,0.410188227891922
1782941971635861800,3.62586181640625,0.2695161998271942,0.25850871205329895,0.5176363587379456
1782941971645846800,3.6358466796875,0.20476727187633514,0.17640766501426697,0.5742027163505554
1782941971655831800,3.645831787109375,0.14210017025470734,-0.000584959052503109,0.5616112947463989
1782941971665815800,3.65581591796875,0.10168769955635071,-0.26135846972465515,0.4531738758087158
1782941971675801000,3.665801025390625,0.07012497633695602,-0.5061681866645813,0.24173887073993683
1782941971685786000,3.6757861328125,0.02841884456574917,-0.703544020652771,-0.033566512167453766
1782941971695771000,3.68577099609375,0.0069806636311113834,-0.8789970874786377,-0.2924092710018158
1782941971705756000,3.695755859375,0.009188641794025898,-1.0152974128723145,-0.4699130058288574
1782941971715741000,3.705740966796875,-0.0021260646171867847,-1.0938513278961182,-0.5450429320335388
1782941971725726000,3.715725830078125,-0.01229963917285204,-1.1955790519714355,-0.4832892119884491
1782941971735711000,3.7257109375,0.025906868278980255,-1.3336538076400757,-0.28411248326301575
1782941971745695700,3.73569580078125,0.15042731165885925,-1.4599659442901611,0.031156616285443306
1782941971755681000,3.745680908203125,0.330552875995636,-1.7336347103118896,0.3516789674758911
1782941971765666000,3.755666015625,0.4388721287250519,-2.0905277729034424,0.4917050898075104
1782941971775651000,3.765651123046875,0.3218262195587158,-2.458148956298828,0.2388126403093338
1782941971785635800,3.7756357421875,-0.015130876563489437,-2.907215118408203,-0.6182262301445007
1782941971795620900,3.785620849609375,-0.38571399450302124,-3.3757522106170654,-1.8808716535568237
1782941971805606000,3.79560595703125,-0.565055251121521,-3.2486891746520996,-2.8649137020111084
1782941971815591000,3.8055908203125,-0.5940074920654297,-2.258307695388794,-3.1716885566711426
1782941971825576000,3.815575927734375,-0.5254238247871399,-0.8024939894676208,-2.8983497619628906
1782941971835561000,3.82556103515625,-0.4502459764480591,0.8026805520057678,-2.3792033195495605
1782941971845544700,3.835544677734375,-0.4553270637989044,2.2404282093048096,-1.7363766431808472
1782941971855530000,3.845530029296875,-0.319111168384552,3.0482425689697266,-1.1371139287948608
1782941971865515000,3.855514892578125,-0.002697165124118328,2.9554731845855713,-0.47379037737846375
1782941971875500000,3.8655,0.26977643370628357,2.324500322341919,0.17260515689849854
1782941971885485000,3.875485107421875,0.4660142660140991,1.3913151025772095,0.592983067035675
1782941971895469800,3.8854697265625,0.582877516746521,0.5740220546722412,0.9275045394897461
1782941971905454800,3.895454833984375,0.6396616101264954,0.29777032136917114,0.9221489429473877
1782941971915439900,3.90543994140625,0.6988245248794556,0.35761022567749023,0.6853662133216858
1782941971925425000,3.9154248046875,0.7517486810684204,0.5333008170127869,0.4709208011627197
1782941971935410000,3.925409912109375,0.808929443359375,0.7000200152397156,0.405557781457901
1782941971945395000,3.93539501953125,0.8571068644523621,0.7235005497932434,0.5452671051025391
1782941971955380000,3.9453798828125,0.8721777200698853,0.576266348361969,0.8684773445129395
1782941971965365000,3.955364990234375,0.8477441668510437,0.45626068115234375,1.192216157913208
1782941971975350000,3.96535009765625,0.8970826864242554,0.511477530002594,1.381600260734558
1782941971985334800,3.975334716796875,1.0376049280166626,0.807689905166626,1.433858871459961
1782941971995319800,3.98531982421875,1.119405746459961,1.2218562364578247,1.3800773620605469
1782941972005304800,3.995304931640625,1.0784965753555298,1.5914689302444458,1.223729133605957
1782941972015287000,4.005287109375,0.9780732989311218,1.809470295906067,0.9613452553749084
1782941972025271800,4.015271728515625,0.9434263706207275,1.7429530620574951,0.6314403414726257
1782941972035256800,4.0252568359375,0.9798248410224915,1.4502495527267456,0.32350224256515503
1782941972045241900,4.035241943359375,1.0227317810058594,0.9874677658081055,0.01563892513513565
1782941972055227100,4.04522705078125,1.0804067850112915,0.41159188747406006,-0.21897438168525696
1782941972065212000,4.0552119140625,1.0371809005737305,-0.10636943578720093,-0.34865862131118774
1782941972075197000,4.065197021484375,0.9009828567504883,-0.5505266189575195,-0.413716197013855
1782941972085182000,4.075181884765625,0.7119100093841553,-0.9119318127632141,-0.4670935869216919
1782941972095166000,4.085166015625,0.44842541217803955,-1.15364408493042,-0.5743358731269836
1782941972105151000,4.09515087890625,0.17771503329277039,-1.329148530960083,-0.8157020807266235
1782941972115136000,4.105135986328125,-0.05774648115038872,-1.3105740547180176,-1.1308317184448242
1782941972125120800,4.115120849609375,-0.24631653726100922,-1.0772775411605835,-1.449890375137329
1782941972135105800,4.125105712890625,-0.4142533540725708,-0.7166059613227844,-1.7179218530654907
1782941972145090800,4.1350908203125,-0.5975044369697571,-0.34435126185417175,-1.9374630451202393
1782941972155076000,4.145076171875,-0.7572219371795654,0.10718317329883575,-2.0253844261169434
1782941972165061000,4.15506103515625,-0.8720029592514038,0.48267361521720886,-1.9430794715881348
1782941972175046000,4.1650458984375,-0.8915756344795227,0.7072584629058838,-1.6907535791397095
1782941972185031000,4.175031005859375,-0.84269779920578,0.7734699249267578,-1.2786550521850586
1782941972195016000,4.185015869140625,-0.753114640712738,0.6891278624534607,-0.7104254364967346
1782941972205001000,4.1950009765625,-0.6250146627426147,0.5045662522315979,-0.056673161685466766
1782941972214985700,4.20498583984375,-0.4646065831184387,0.29759013652801514,0.578229546546936
1782941972224970800,4.214970703125,-0.30712106823921204,0.05928716063499451,1.1661334037780762
1782941972234956000,4.2249560546875,-0.22300270199775696,-0.09167225658893585,1.657697319984436
1782941972244941000,4.234941162109375,-0.21583354473114014,-0.0795329213142395,2.0108304023742676
1782941972254926000,4.244926025390625,-0.24685963988304138,0.08649919182062149,2.2061190605163574
1782941972264910800,4.254910888671875,-0.3250638544559479,0.4749903678894043,2.208271026611328
1782941972274896000,4.264895751953125,-0.43934327363967896,0.8543289303779602,2.075289011001587
1782941972284881000,4.274880859375,-0.5054760575294495,1.0365287065505981,1.907116174697876
1782941972294866000,4.284865966796875,-0.5179740190505981,1.0653702020645142,1.707394003868103
1782941972304851000,4.294850830078125,-0.5196434855461121,1.0086899995803833,1.445738673210144
1782941972314836000,4.3048359375,-0.5311099886894226,0.8384090065956116,1.1777548789978027
1782941972324821000,4.314821044921875,-0.5156475901603699,0.6362268924713135,0.9203612208366394
1782941972334806000,4.324805908203125,-0.4843839704990387,0.4153517484664917,0.6641778945922852
1782941972344791000,4.334791015625,-0.44269585609436035,0.17989405989646912,0.39843782782554626
1782941972354775800,4.34477587890625,-0.38382774591445923,-0.020511474460363388,0.15820232033729553
1782941972364760800,4.3547607421875,-0.2968692183494568,-0.15317311882972717,-0.03775741159915924
1782941972374745900,4.364745849609375,-0.19703157246112823,-0.2384645789861679,-0.1778671145439148
1782941972384731000,4.37473095703125,-0.10930796712636948,-0.2539508044719696,-0.24864469468593597
1782941972394716000,4.3847158203125,-0.03199613839387894,-0.23782294988632202,-0.24583213031291962
1782941972404701000,4.394700927734375,0.03525879234075546,-0.19753271341323853,-0.17318220436573029
1782941972414686000,4.40468603515625,0.07883184403181076,-0.12160733342170715,-0.05175324156880379
1782941972424674000,4.414674072265625,0.09803050756454468,0.0037500206381082535,0.09116651862859726
1782941972434659000,4.4246591796875,0.12808801233768463,0.11186370998620987,0.22235356271266937
1782941972444644000,4.43464404296875,0.14955896139144897,0.19584569334983826,0.31448376178741455
1782941972454628900,4.44462890625,0.11732184886932373,0.21694251894950867,0.3362288177013397
1782941972464614000,4.45461376953125,0.07604895532131195,0.08594921231269836,0.30189356207847595
1782941972474599000,4.464598876953125,0.06779076159000397,-0.15855932235717773,0.2475419044494629
1782941972484584000,4.474583984375,0.06912609189748764,-0.4274769425392151,0.18437935411930084
1782941972494568700,4.484568603515625,0.050140149891376495,-0.6620854735374451,0.11266549676656723
1782941972504554000,4.494553955078125,-0.0026678694412112236,-0.8269250988960266,0.04201122373342514
1782941972514539000,4.5045390625,-0.09259536117315292,-0.9186201095581055,-0.03827216476202011
1782941972524524000,4.51452392578125,-0.18096330761909485,-0.9857677221298218,-0.08918195217847824
1782941972534509000,4.524509033203125,-0.24328073859214783,-1.0757594108581543,-0.10743152350187302
1782941972544493800,4.534493896484375,-0.29144832491874695,-1.233070731163025,-0.11369594931602478
1782941972554478800,4.544478759765625,-0.30040639638900757,-1.423380970954895,-0.1225871741771698
1782941972564463900,4.5544638671875,-0.23417168855667114,-1.6068674325942993,-0.09875186532735825
1782941972574449000,4.564448974609375,-0.07082217186689377,-1.715445637702942,-0.0719761773943901
1782941972584434000,4.574433837890625,0.11461613327264786,-1.7384419441223145,-0.0245926845818758
1782941972594419000,4.5844189453125,0.20560409128665924,-1.561310052871704,0.024251021444797516
1782941972604404000,4.594404052734375,0.1340268850326538,-1.3955597877502441,-0.054256606847047806
1782941972614389000,4.604388916015625,-0.09801194816827774,-1.6582846641540527,-0.4479932487010956
1782941972624374000,4.6143740234375,-0.3175099790096283,-2.2376837730407715,-1.1462416648864746
1782941972634358800,4.62435888671875,-0.5123668313026428,-2.5027427673339844,-2.018418312072754
1782941972644343800,4.63434375,-0.6395490765571594,-1.9626474380493164,-2.784412384033203
1782941972654328800,4.644328857421875,-0.633821964263916,-0.8098521828651428,-3.3525869846343994
1782941972664318200,4.654318115234375,-0.7027896046638489,0.6301972270011902,-3.4775168895721436
1782941972674303000,4.664302978515625,-0.8303145170211792,1.50074303150177,-3.0849456787109375
1782941972684288000,4.6742880859375,-0.6220656037330627,1.6349248886108398,-2.2975940704345703
1782941972694273000,4.68427294921875,-0.06061743572354317,1.2931559085845947,-1.3166391849517822
1782941972704258000,4.694258056640625,0.46977874636650085,0.7379764318466187,-0.3446658253669739
1782941972714243000,4.7042431640625,0.8008943200111389,0.32708585262298584,0.39224496483802795
1782941972724228000,4.71422802734375,0.99408358335495,0.14248132705688477,0.633712887763977
1782941972734213000,4.724213134765625,1.047423005104065,0.0747254490852356,0.4770713746547699
1782941972744197000,4.734197021484375,1.0383027791976929,0.18891480565071106,0.28389066457748413
1782941972754182100,4.74418212890625,1.0453321933746338,0.287053644657135,0.3668358623981476
1782941972764167200,4.754167236328125,1.0884813070297241,0.2577767074108124,0.6788787841796875
1782941972774152000,4.76415185546875,0.9436825513839722,0.25396308302879333,0.8368476629257202
1782941972784137000,4.774136962890625,0.6582781076431274,0.3325215280056,0.6848450303077698
1782941972794122000,4.7841220703125,0.48393693566322327,0.49710914492607117,0.3238764703273773
1782941972804107000,4.79410693359375,0.46164214611053467,0.8630774021148682,0.04250268638134003
1782941972814092000,4.804092041015625,0.5099521279335022,1.3229069709777832,0.06954096257686615
1782941972824077000,4.8140771484375,0.550510048866272,1.7139344215393066,0.35604116320610046
1782941972834062000,4.82406201171875,0.6138858199119568,1.9401599168777466,0.6889338493347168
1782941972844047000,4.834047119140625,0.761203408241272,1.9860767126083374,0.8175894021987915
1782941972854032100,4.8440322265625,0.9008582830429077,1.8783568143844604,0.8266883492469788
1782941972864017000,4.854016845703125,1.0764127969741821,1.42589271068573,0.9313532710075378
1782941972874002000,4.864001953125,1.1917396783828735,0.7523714900016785,0.9897508025169373
1782941972883987000,4.873987060546875,1.2377238273620605,0.002714092843234539,0.9458667039871216
1782941972893972200,4.88397216796875,1.0713080167770386,-0.9284343719482422,0.7342237234115601
1782941972903957200,4.893957275390625,0.7898105978965759,-1.982789158821106,0.38148167729377747
1782941972913942000,4.90394189453125,0.38460931181907654,-2.784761905670166,-0.12775680422782898
1782941972923927000,4.913927001953125,0.032776590436697006,-3.1954734325408936,-0.6057173013687134
1782941972933912000,4.923912109375,-0.31833615899086,-3.3541364669799805,-1.0030311346054077
1782941972943897000,4.93389697265625,-0.6824095845222473,-3.0499813556671143,-1.3076138496398926
1782941972953881900,4.9438818359375,-1.039591908454895,-2.1917669773101807,-1.459878921508789
1782941972963867000,4.953866943359375,-1.4204425811767578,-1.0775909423828125,-1.5033409595489502
1782941972973852200,4.96385205078125,-1.8040565252304077,-0.006169230677187443,-1.5018956661224365
1782941972983837200,4.973837158203125,-2.148808240890503,0.9399374127388,-1.4145431518554688
1782941972993822200,4.983822265625,-2.3986666202545166,1.7044970989227295,-1.1983836889266968
1782941973003807000,4.993806884765625,-2.520963430404663,2.3204569816589355,-0.8701872825622559
1782941973013792000,5.0037919921875,-2.4995036125183105,2.8115968704223633,-0.47132885456085205
1782941973023777000,5.013777099609375,-2.413548469543457,3.049520492553711,0.01969243213534355
1782941973033762000,5.023761962890625,-2.274411678314209,2.8508942127227783,0.5488651990890503
1782941973043747000,5.0337470703125,-1.999718427658081,2.490126371383667,1.022420883178711
1782941973053732000,5.043732177734375,-1.6010043621063232,2.132974863052368,1.4207186698913574
1782941973063717000,5.053717041015625,-1.132293701171875,1.6532355546951294,1.8251583576202393
1782941973073702100,5.0637021484375,-0.6291364431381226,1.297999620437622,2.1346802711486816
1782941973083687200,5.073687255859375,-0.18729867041110992,1.229591727256775,2.250525951385498
1782941973093672000,5.083671875,0.08795234560966492,1.1455894708633423,2.1680760383605957
1782941973103657000,5.093656982421875,0.2434525489807129,0.9246753454208374,2.0458900928497314
1782941973113642000,5.10364208984375,0.30221492052078247,0.739477813243866,1.8199234008789062
1782941973123627000,5.113626953125,0.20328767597675323,0.5276895761489868,1.5544416904449463
1782941973133612000,5.123612060546875,0.1536703109741211,0.19826507568359375,1.4209600687026978
1782941973143597000,5.13359716796875,0.15356306731700897,-0.1465238779783249,1.3064656257629395
1782941973153582000,5.14358203125,0.16120553016662598,-0.4765883684158325,1.1736180782318115
1782941973163567000,5.153567138671875,0.1737082600593567,-0.7846525311470032,1.010545253753662
1782941973173552000,5.16355224609375,0.20470958948135376,-1.077843427658081,0.8370959162712097
1782941973183537000,5.173536865234375,0.24097056686878204,-1.2755621671676636,0.5953061580657959
1782941973193522000,5.18352197265625,0.283547580242157,-1.4499214887619019,0.37878933548927307
1782941973203507000,5.1935068359375,0.3914406895637512,-1.6276710033416748,0.2672376334667206
1782941973213492200,5.2034921875,0.541197657585144,-1.768717885017395,0.19491656124591827
1782941973223477200,5.213477294921875,0.712257981300354,-1.8507492542266846,0.2049449235200882
1782941973233462000,5.2234619140625,0.9185866713523865,-1.8058037757873535,0.2777285873889923
1782941973243447000,5.233447021484375,1.0159856081008911,-1.5764371156692505,0.3404337465763092
1782941973253432000,5.24343212890625,0.9924497008323669,-1.2233318090438843,0.3947494328022003
1782941973263417000,5.2534169921875,0.9021205902099609,-0.8320410251617432,0.46730127930641174
1782941973273401900,5.26340185546875,0.8230987787246704,-0.4684947431087494,0.5598298907279968
1782941973283387000,5.273386962890625,0.7801303863525391,-0.1225048080086708,0.6525512337684631
1782941973293372200,5.2833720703125,0.7415198683738708,0.23646266758441925,0.7443434596061707
1782941973303357200,5.293357177734375,0.6466870903968811,0.5611626505851746,0.8156886100769043
1782941973313342200,5.30334228515625,0.5006616711616516,0.7555731534957886,0.8818899989128113
1782941973323327000,5.313326904296875,0.38359344005584717,0.8031423687934875,0.9654558300971985
1782941973333312000,5.32331201171875,0.3043052852153778,0.674378514289856,1.0529451370239258
1782941973343297000,5.333297119140625,0.2146533727645874,0.3915613889694214,1.0920966863632202
1782941973353282000,5.343281982421875,0.13656362891197205,0.10344064980745316,0.9395965933799744
1782941973363267000,5.35326708984375,0.14871302247047424,-0.07958556711673737,0.4681110978126526
1782941973373252000,5.363252197265625,0.3430750370025635,-0.11332515627145767,-0.11065079271793365
1782941973383237000,5.373237060546875,0.47494351863861084,0.078472800552845,-0.6486955285072327
1782941973393222100,5.38322216796875,0.3695707619190216,0.35238876938819885,-1.0056467056274414
1782941973403207200,5.393207275390625,0.19160717725753784,0.6417163610458374,-1.1690269708633423
1782941973413192000,5.40319189453125,0.0942329540848732,0.8840610980987549,-1.1853129863739014
1782941973423177000,5.413177001953125,0.11761481314897537,0.8134415745735168,-1.0604732036590576
1782941973433162000,5.423161865234375,0.19891659915447235,0.35461780428886414,-0.786449670791626
1782941973443147000,5.43314697265625,0.235885351896286,-0.2738194763660431,-0.5633143186569214
1782941973453132000,5.443132080078125,0.18497715890407562,-0.7576146125793457,-0.5333319306373596
1782941973463117000,5.453116943359375,0.17318227887153625,-1.0105246305465698,-0.7058178186416626
1782941973473102000,5.46310205078125,0.26790985465049744,-0.983698844909668,-0.9417861104011536
1782941973483087000,5.473087158203125,0.5284135341644287,-0.623352587223053,-1.1406891345977783
1782941973493072100,5.483072021484375,0.8001536726951599,-0.09166181087493896,-1.4141476154327393
1782941973503057000,5.493056884765625,0.8016327023506165,0.21219009160995483,-1.8177218437194824
1782941973513042000,5.5030419921875,0.5539502501487732,0.35312405228614807,-2.2291669845581055
1782941973523027000,5.51302685546875,0.3406713604927063,0.4759732484817505,-2.447998285293579
1782941973533012200,5.52301220703125,0.27488595247268677,0.5215146541595459,-2.3080079555511475
1782941973542997200,5.532997314453125,0.34689101576805115,0.5518673062324524,-1.8398345708847046
1782941973552982000,5.54298193359375,0.45576077699661255,0.608020544052124,-1.1563363075256348
1782941973562967000,5.552967041015625,0.5755053758621216,0.5816494226455688,-0.4907267391681671
1782941973572952000,5.5629521484375,0.6893230080604553,0.594349205493927,-0.03235410898923874
1782941973582937000,5.57293701171875,0.6913877129554749,0.6575015783309937,0.13455457985401154
1782941973592921900,5.582921875,0.5653525590896606,0.7121145129203796,0.06909994781017303
1782941973602906000,5.592906005859375,0.39142340421676636,0.7263807058334351,-0.10735705494880676
1782941973612891000,5.602890869140625,0.24394871294498444,0.6916776299476624,-0.29685959219932556
1782941973622876200,5.612876220703125,0.12759339809417725,0.5785361528396606,-0.42360809445381165
1782941973632861200,5.622861083984375,-0.017413051798939705,0.42086607217788696,-0.4768662452697754
1782941973642846200,5.63284619140625,-0.22410011291503906,0.2303791642189026,-0.5118458867073059
1782941973652831000,5.6428310546875,-0.402751624584198,-0.0823795348405838,-0.5764504671096802
1782941973662812000,5.65281201171875,-0.4976140558719635,-0.4296751022338867,-0.57375568151474
1782941973672797000,5.662796875,-0.4731241762638092,-0.6495009660720825,-0.4163609743118286
1782941973682782200,5.6727822265625,-0.3435279428958893,-0.8083208799362183,-0.11895671486854553
1782941973692767200,5.682767333984375,-0.19189928472042084,-0.7683029174804688,0.23769673705101013
1782941973702752000,5.692751953125,-0.0838783010840416,-0.5788806080818176,0.4684697687625885
1782941973712737000,5.702737060546875,0.09775354713201523,-0.29923537373542786,0.5092923045158386
1782941973722722000,5.71272216796875,0.2759804129600525,0.06684780865907669,0.4588949680328369
1782941973732707000,5.72270703125,0.34657496213912964,0.3255821764469147,0.37357527017593384
1782941973742692000,5.732692138671875,0.3667852282524109,0.4275292158126831,0.31042230129241943
1782941973752676900,5.7426767578125,0.3734460473060608,0.38377001881599426,0.2998785972595215
1782941973762662100,5.752662109375,0.3664308786392212,0.25309425592422485,0.396327406167984
1782941973772647200,5.762647216796875,0.3704892694950104,0.13200406730175018,0.60797518491745
1782941973782632200,5.772632080078125,0.3735785186290741,-0.03428691253066063,0.8859759569168091
1782941973792617000,5.782616943359375,0.40502139925956726,-0.3036821484565735,1.1451579332351685
1782941973802602000,5.79260205078125,0.4282737970352173,-0.7233586311340332,1.2746027708053589
1782941973812587000,5.8025869140625,0.49101442098617554,-1.2675681114196777,1.2014579772949219
1782941973822572000,5.812572021484375,0.5512071847915649,-1.6820898056030273,0.932672917842865
1782941973832557000,5.82255712890625,0.48435574769973755,-1.8869282007217407,0.4964196979999542
1782941973842542000,5.8325419921875,0.479348748922348,-1.8726364374160767,-0.09003711491823196
1782941973852527000,5.842527099609375,0.4733004570007324,-1.6652294397354126,-0.7642198204994202
1782941973862512000,5.85251220703125,0.4675535261631012,-1.4403575658798218,-1.4725589752197266
1782941973872497200,5.8624970703125,0.5793168544769287,-0.8389992713928223,-2.0553412437438965
1782941973882482200,5.872482177734375,0.6104907393455505,-0.14439940452575684,-2.458371162414551
1782941973892467000,5.882467041015625,0.5248879790306091,0.3344571888446808,-2.7731359004974365
1782941973902452000,5.892451904296875,0.42811402678489685,0.7874454259872437,-2.9708657264709473
1782941973912437000,5.90243701171875,0.29521989822387695,1.2262643575668335,-3.0039069652557373
1782941973922422300,5.91242236328125,0.14445683360099792,1.574874997138977,-2.907214879989624
1782941973932407000,5.922406982421875,0.03271884098649025,1.7239105701446533,-2.6360273361206055
1782941973942392000,5.93239208984375,-0.013894384726881981,1.5856812000274658,-2.137646436691284
1782941973952377000,5.942377197265625,0.05367373675107956,1.2520287036895752,-1.5302566289901733
1782941973962362000,5.952362060546875,0.2121000587940216,0.8923658728599548,-0.9499748349189758
1782941973972347100,5.96234716796875,0.36053797602653503,0.5814815163612366,-0.3662658929824829
1782941973982332000,5.972331787109375,0.45569854974746704,0.4153938889503479,0.22469019889831543
1782941973992317000,5.98231689453125,0.5190085768699646,0.4920039474964142,0.7678610682487488
1782941974002302200,5.99230224609375,0.5193004012107849,0.5961528420448303,1.2336550951004028
1782941974012287200,6.002287353515625,0.4576745629310608,0.6030967831611633,1.6280744075775146
1782941974022272000,6.01227197265625,0.3652586042881012,0.5549691915512085,1.9426429271697998
1782941974032257000,6.022257080078125,0.26328909397125244,0.5028625726699829,2.1514291763305664
1782941974042242000,6.032241943359375,0.11296087503433228,0.6494427919387817,2.154590368270874
1782941974052227000,6.04222705078125,-0.1162044033408165,0.39446166157722473,2.043964385986328
1782941974062212000,6.052212158203125,-0.2568993866443634,0.06822921335697174,1.9225744009017944
1782941974072196900,6.06219677734375,-0.3041585385799408,-0.1409466564655304,1.7885692119598389
1782941974082182100,6.07218212890625,-0.310144305229187,-0.35432547330856323,1.6498421430587769
1782941974092167200,6.082167236328125,-0.3111456632614136,-0.5282394886016846,1.5202382802963257
1782941974102152200,6.092152099609375,-0.30238282680511475,-0.6730597615242004,1.4058752059936523
1782941974112137000,6.102136962890625,-0.29000604152679443,-0.829630970954895,1.3029903173446655
1782941974122122000,6.1121220703125,-0.2826077938079834,-0.8946253061294556,1.2045729160308838
1782941974132107000,6.12210693359375,-0.28910669684410095,-0.8231835961341858,1.079189658164978
1782941974142092000,6.132092041015625,-0.342817485332489,-0.6910846829414368,0.9177629351615906
1782941974152077000,6.1420771484375,-0.4301377236843109,-0.5530043244361877,0.7019121050834656
1782941974162062000,6.15206201171875,-0.5131862163543701,-0.4551825225353241,0.3793185353279114
1782941974172047000,6.162047119140625,-0.4955752491950989,-0.4534117877483368,0.07573974877595901
1782941974182032100,6.1720322265625,-0.3859710097312927,-0.5421673059463501,-0.170181006193161
1782941974192017200,6.18201708984375,-0.2900439500808716,-0.6024506092071533,-0.3434220254421234
1782941974202002200,6.192002197265625,-0.24597203731536865,-0.5374252200126648,-0.4741341769695282
1782941974211987000,6.201987060546875,-0.2782530188560486,-0.37605202198028564,-0.5695448517799377
1782941974221972000,6.211971923828125,-0.36221110820770264,-0.1445779651403427,-0.648074746131897
1782941974231957000,6.22195703125,-0.4836808145046234,0.01341299619525671,-0.7730073928833008
1782941974241942300,6.2319423828125,-0.5488072633743286,0.02344711683690548,-0.9984033703804016
1782941974251927000,6.241927001953125,-0.49327126145362854,-0.11855662614107132,-1.3115626573562622
1782941974261912000,6.251912109375,-0.3307689130306244,-0.4923643171787262,-1.562617540359497
1782941974271897000,6.26189697265625,-0.14588110148906708,-0.8800379633903503,-1.5948474407196045
1782941974281882000,6.271882080078125,-0.08216775208711624,-1.1417537927627563,-1.3086626529693604
1782941974291867100,6.2818671875,-0.17408382892608643,-1.139068603515625,-0.8683171272277832
1782941974301852000,6.291851806640625,-0.3857840895652771,-0.9792443513870239,-0.5214173197746277
1782941974311837000,6.3018369140625,-0.5882969498634338,-0.6710609793663025,-0.5265704989433289
1782941974321822200,6.311822265625,-0.6925798654556274,-0.5077049732208252,-0.9819541573524475
1782941974331807200,6.32180712890625,-0.6408929824829102,-0.5514804124832153,-1.5781570672988892
1782941974341792000,6.3317919921875,-0.5945894718170166,-0.36930957436561584,-2.061800003051758
1782941974351777000,6.341777099609375,-0.6769868731498718,-0.42755478620529175,-2.207775592803955
1782941974361762000,6.351761962890625,-0.6512249112129211,-0.6066426038742065,-1.8723503351211548
1782941974371747000,6.3617470703125,-0.33879274129867554,-0.8434197902679443,-1.2130696773529053
1782941974381732000,6.371732177734375,0.09819470345973969,-0.8708946704864502,-0.6049510836601257
1782941974391716900,6.381716796875,0.42700186371803284,-0.47833648324012756,-0.3424281179904938
1782941974401702100,6.3917021484375,0.6303266286849976,0.301424503326416,-0.5553014278411865
1782941974411687200,6.401687255859375,0.8315598368644714,1.1789329051971436,-1.0347570180892944
1782941974421672200,6.411672119140625,0.9815051555633545,1.8444771766662598,-1.4314261674880981
1782941974431657000,6.421656982421875,1.0801544189453125,2.118011951446533,-1.5373821258544922
1782941974441642000,6.43164208984375,1.1115849018096924,1.8542643785476685,-1.2934376001358032
1782941974451627000,6.441626953125,1.0567575693130493,1.2866472005844116,-0.7877153158187866
1782941974461612000,6.451612060546875,0.951184868812561,0.8353491425514221,-0.3127966523170471
1782941974471597000,6.46159716796875,0.8925290107727051,0.5878594517707825,-0.05684183910489082
1782941974481582000,6.47158203125,0.9389742612838745,0.9031866788864136,0.013152859173715115
1782941974491567000,6.481567138671875,0.8500198721885681,1.408009648323059,-0.056546058505773544
1782941974501552000,6.49155224609375,0.6977789998054504,1.6220626831054688,-0.21441084146499634
1782941974511537200,6.501537109375,0.5176318883895874,1.522749900817871,-0.19390369951725006
1782941974521522000,6.51152197265625,0.33558833599090576,1.378644585609436,-0.005640939809381962
1782941974531507000,6.5215068359375,0.29026105999946594,1.1367305517196655,0.279843807220459
1782941974541492000,6.531491943359375,0.31660643219947815,0.6932334899902344,0.5636772513389587
1782941974551477000,6.54147705078125,0.282023161649704,0.06340577453374863,0.8255211114883423
1782941974561462300,6.551462158203125,0.11655513197183609,-0.7365378141403198,1.070139765739441
1782941974571447000,6.561447021484375,-0.11264636367559433,-1.5619295835494995,1.2890443801879883
1782941974581432000,6.57143212890625,-0.3752794563770294,-2.192471742630005,1.4404232501983643
1782941974591417000,6.5814169921875,-0.5725923180580139,-2.3969345092773438,1.5262707471847534
1782941974601402000,6.591402099609375,-0.7544382810592651,-2.1960954666137695,1.5595499277114868
1782941974611387100,6.60138720703125,-1.0143499374389648,-1.7625948190689087,1.492530345916748
1782941974621372000,6.611371826171875,-1.2240608930587769,-1.1965047121047974,1.3322837352752686
1782941974631357000,6.62135693359375,-1.310144305229187,-0.479219526052475,1.1069118976593018
1782941974641342200,6.63134228515625,-1.247513771057129,0.23649881780147552,0.8725212812423706
1782941974651327200,6.6413271484375,-1.0765228271484375,0.8522543907165527,0.6609674692153931
1782941974661312000,6.65131201171875,-0.8138530254364014,1.3572139739990234,0.48950839042663574
1782941974671297500,6.661297607421875,-0.5135536789894104,1.696898102760315,0.37756747007369995
1782941974681282600,6.671282470703125,-0.19955602288246155,1.9404175281524658,0.1969381719827652
1782941974691267600,6.681267578125,0.0398578941822052,2.0085818767547607,-0.03256772458553314
1782941974701252400,6.69125244140625,0.20466545224189758,1.921690821647644,-0.2685694992542267
1782941974711237400,6.7012373046875,0.33721473813056946,1.7091513872146606,-0.46747779846191406
1782941974721222400,6.711222412109375,0.430990993976593,1.4939903020858765,-0.6137735247612
1782941974731207400,6.72120751953125,0.4655478894710541,1.316939353942871,-0.6903766989707947
1782941974741192700,6.731192626953125,0.44559234380722046,1.1503382921218872,-0.6854501962661743
1782941974751177500,6.741177490234375,0.41038748621940613,0.9671826362609863,-0.5848186612129211
1782941974761162500,6.75116259765625,0.4208603799343109,0.748673141002655,-0.41372567415237427
1782941974771147500,6.7611474609375,0.5208394527435303,0.5044125318527222,-0.210069477558136
1782941974781132500,6.771132568359375,0.5872535705566406,0.29775941371917725,0.020212706178426743
1782941974791117300,6.781117431640625,0.5879233479499817,0.14145608246326447,0.25531309843063354
1782941974801102300,6.791102294921875,0.5258020758628845,-0.022968964651226997,0.4709014892578125
1782941974811087400,6.80108740234375,0.45677244663238525,-0.21266992390155792,0.657447338104248
1782941974821072600,6.81107275390625,0.3972117602825165,-0.48156121373176575,0.8098030090332031
1782941974831057700,6.8210576171875,0.316629022359848,-0.6782673001289368,0.9245815277099609
1782941974841042400,6.83104248046875,0.1584547758102417,-0.8503033518791199,0.9930697679519653
1782941974851027500,6.84102734375,-0.024331819266080856,-1.089592695236206,1.0526944398880005
1782941974861012500,6.851012451171875,-0.17551960051059723,-1.3260748386383057,1.1018447875976562
1782941974870997500,6.86099755859375,-0.28422290086746216,-1.5212514400482178,1.1298960447311401
1782941974880982300,6.870982177734375,-0.35405233502388,-1.6779755353927612,1.1786051988601685
1782941974890967300,6.88096728515625,-0.39649301767349243,-1.7448440790176392,1.2527074813842773
1782941974900952600,6.89095263671875,-0.43127185106277466,-1.7183328866958618,1.3255650997161865
1782941974910937600,6.9009375,-0.46799445152282715,-1.6718926429748535,1.3985143899917603
1782941974920922600,6.910922607421875,-0.482617050409317,-1.592213749885559,1.4551405906677246
1782941974930907400,6.920907470703125,-0.5144788026809692,-1.4235732555389404,1.421254277229309
1782941974940892400,6.930892333984375,-0.5724465847015381,-1.3170723915100098,1.284355878829956
1782941974950877400,6.94087744140625,-0.5924900770187378,-1.3556016683578491,1.156438946723938
1782941974960862500,6.950862548828125,-0.568915605545044,-1.4041569232940674,1.083133578300476
1782941974970847500,6.960847412109375,-0.5325688123703003,-1.2767845392227173,1.022271752357483
1782941974980832500,6.97083251953125,-0.5295402407646179,-0.9743503928184509,0.9549131989479065
1782941974990817500,6.980817626953125,-0.5468654036521912,-0.5631455779075623,0.8299390077590942
1782941975000802600,6.990802490234375,-0.5296579599380493,-0.06668495386838913,0.5168681740760803
1782941975010787600,7.00078759765625,-0.4989965558052063,0.37323737144470215,0.004741337150335312
1782941975020772400,7.0107724609375,-0.4738940894603729,0.7507296204566956,-0.5656329393386841
1782941975030757400,7.02075732421875,-0.4511674642562866,0.876061201095581,-1.0809884071350098
1782941975040742400,7.030742431640625,-0.380435585975647,0.5968692302703857,-1.49233078956604
1782941975050727400,7.0407275390625,-0.2691545784473419,-0.04619549214839935,-1.7479431629180908
1782941975060712400,7.05071240234375,-0.14806832373142242,-0.8543319702148438,-1.5902878046035767
1782941975070697500,7.060697509765625,0.06035172566771507,-1.159515142440796,-1.0345476865768433
1782941975080682500,7.0706826171875,0.2432950884103775,-1.035035252571106,-0.4518113434314728
1782941975090667500,7.08066748046875,0.17320653796195984,-1.0015045404434204,-0.19924993813037872
1782941975100652500,7.090652587890625,-0.13385753333568573,-0.8596387505531311,-0.27442505955696106
1782941975110637300,7.10063720703125,-0.4465280771255493,-0.3928731679916382,-0.5371478199958801
1782941975120622300,7.110622314453125,-0.7820792198181152,0.08232109993696213,-1.0104376077651978
1782941975130607400,7.120607421875,-0.9303006529808044,0.20218677818775177,-1.6630516052246094
1782941975140592600,7.130592529296875,-0.9319391846656799,0.2100290209054947,-2.28743839263916
1782941975150577700,7.14057763671875,-0.7300937175750732,0.2733491063117981,-2.433959722518921
1782941975160562400,7.1505625,-0.41963616013526917,0.4194020926952362,-2.0684351921081543
1782941975170547500,7.16054736328125,0.02909451723098755,0.6161313652992249,-1.4855960607528687
1782941975180533500,7.170533447265625,0.4441941976547241,0.7485047578811646,-0.9350247383117676
1782941975190518300,7.180518310546875,0.8055191040039062,0.9164945483207703,-0.5331665277481079
1782941975200503600,7.190503662109375,1.0297484397888184,1.156617522239685,-0.34029337763786316
1782941975210488600,7.200488525390625,1.0808321237564087,1.2776377201080322,-0.3335055112838745
1782941975220473600,7.2104736328125,1.0059130191802979,1.2954336404800415,-0.43521377444267273
1782941975230458600,7.220458740234375,0.8725259900093079,1.2362353801727295,-0.5714214444160461
1782941975240443400,7.230443359375,0.6748670339584351,1.091655969619751,-0.6681070327758789
1782941975250428400,7.240428466796875,0.4767979383468628,0.806693434715271,-0.6640164256095886
1782941975260413400,7.250413330078125,0.3353777825832367,0.5322328805923462,-0.569395124912262
1782941975270398500,7.2603984375,0.2748686373233795,0.3374048173427582,-0.45447999238967896
1782941975280383500,7.270383544921875,0.28560078144073486,0.20410485565662384,-0.4031415581703186
1782941975290368500,7.280368408203125,0.3223816752433777,0.07979036867618561,-0.4459236264228821
1782941975300353500,7.290353515625,0.3550933301448822,-0.05843288078904152,-0.5505319237709045
1782941975310338600,7.300338623046875,0.3866656422615051,-0.16341042518615723,-0.6623260974884033
1782941975320323600,7.310323486328125,0.3807375729084015,-0.227519229054451,-0.7463350892066956
1782941975330308400,7.320308349609375,0.3677922189235687,-0.2517739534378052,-0.7590293288230896
1782941975340293400,7.33029345703125,0.36137786507606506,-0.2218015342950821,-0.6918919682502747
1782941975350278400,7.3402783203125,0.34937313199043274,-0.17795231938362122,-0.5804411172866821
1782941975360263700,7.350263671875,0.3249918818473816,-0.12362701445817947,-0.45345625281333923
1782941975370248400,7.36024853515625,0.28307878971099854,-0.021517697721719742,-0.3284759819507599
1782941975380233500,7.3702333984375,0.246944397687912,0.09798642992973328,-0.22119878232479095
1782941975390218500,7.380218505859375,0.25234130024909973,0.16797110438346863,-0.14577725529670715
1782941975400203500,7.39020361328125,0.2745937705039978,0.18589307367801666,-0.10334685444831848
1782941975410188500,7.4001884765625,0.28675031661987305,0.2148112654685974,-0.07580124586820602
1782941975420173300,7.41017333984375,0.2685166895389557,0.24375462532043457,-0.07172118127346039
1782941975430158300,7.420158447265625,0.20538966357707977,0.2428792417049408,-0.10728769749403
1782941975440143600,7.4301435546875,0.10971766710281372,0.15245530009269714,-0.14113974571228027
1782941975450128600,7.440128662109375,0.01986927166581154,0.02423848584294319,-0.14761176705360413
1782941975460113400,7.450113525390625,-0.0414033867418766,-0.08010238409042358,-0.10287214070558548
1782941975470098400,7.460098388671875,-0.07003290206193924,-0.20110736787319183,-0.010813048109412193
1782941975480083500,7.47008349609375,-0.09076603502035141,-0.27362215518951416,0.08822868764400482
1782941975490068500,7.480068359375,-0.15906065702438354,-0.262014776468277,0.11884251981973648
1782941975500053500,7.490053466796875,-0.24145866930484772,-0.2041105479001999,0.06904397904872894
1782941975510038300,7.500038330078125,-0.28817102313041687,-0.11113932728767395,-0.010439924895763397
1782941975520023600,7.5100234375,-0.3233655095100403,0.00033880211412906647,-0.09542643278837204
1782941975530008600,7.520008544921875,-0.3717364966869354,0.12007292360067368,-0.16192877292633057
1782941975539993600,7.52999365234375,-0.4190111756324768,0.1948782503604889,-0.19722528755664825
1782941975549978400,7.539978271484375,-0.46612727642059326,0.1967669576406479,-0.2095210999250412
1782941975559963400,7.54996337890625,-0.4991685152053833,0.1964682936668396,-0.22919383645057678
1782941975569948400,7.559948486328125,-0.5229817032814026,0.23924477398395538,-0.2675201892852783
1782941975579933400,7.569933349609375,-0.5783746242523193,0.3830120861530304,-0.31059974431991577
1782941975589918500,7.57991845703125,-0.6114915609359741,0.4136485457420349,-0.3265582025051117
1782941975599903500,7.589903564453125,-0.6334717869758606,0.3226315677165985,-0.30635568499565125
1782941975609888500,7.599888427734375,-0.642922580242157,0.19541208446025848,-0.23673957586288452
1782941975619873500,7.60987353515625,-0.6318516135215759,0.1407533437013626,-0.10170486569404602
1782941975629858600,7.619858642578125,-0.5950989127159119,0.2151961475610733,0.08925549685955048
1782941975639843600,7.629843505859375,-0.5354946851730347,0.3598797023296356,0.3194306790828705
1782941975649828400,7.639828369140625,-0.4697244167327881,0.49335092306137085,0.5526937246322632
1782941975659813400,7.6498134765625,-0.39629727602005005,0.5895687937736511,0.7572262287139893
1782941975669799400,7.65979931640625,-0.34422314167022705,0.6422929763793945,0.9081230759620667
1782941975679784200,7.6697841796875,-0.2998296618461609,0.6852515339851379,0.988192617893219
1782941975689769200,7.679769287109375,-0.24645060300827026,0.7338533997535706,0.9835246205329895
1782941975699754200,7.689754150390625,-0.1986529678106308,0.799375593662262,0.8708946108818054
1782941975709739500,7.699739501953125,-0.1707851141691208,0.841812252998352,0.6814733147621155
1782941975719724500,7.709724609375,-0.12135329097509384,0.8827254772186279,0.4797652065753937
1782941975729709300,7.719709228515625,-0.007666149642318487,0.9763886332511902,0.26846522092819214
1782941975739694300,7.7296943359375,0.16086022555828094,1.104949712753296,0.042008087038993835
1782941975749679400,7.739679443359375,0.32294872403144836,1.0310648679733276,-0.19651739299297333
1782941975759664400,7.749664306640625,0.46876201033592224,0.8000749945640564,-0.44462257623672485
1782941975769649200,7.759649169921875,0.5742250084877014,0.48930221796035767,-0.6536558866500854
1782941975779634200,7.76963427734375,0.583263099193573,-0.031716007739305496,-0.6792219877243042
1782941975789619500,7.779619384765625,0.5077509880065918,-0.49238428473472595,-0.5441049337387085
1782941975799604500,7.7896044921875,0.40978026390075684,-0.5171566009521484,-0.5344871282577515
1782941975809589500,7.799589599609375,0.23382548987865448,-0.637867271900177,-0.5874241590499878
1782941975819574300,7.80957421875,0.04255153611302376,-0.8940127491950989,-0.593778133392334
1782941975829559300,7.819559326171875,-0.04354659840464592,-0.9410157203674316,-0.5387492775917053
1782941975839544300,7.82954443359375,-0.014914769679307938,-0.8958902359008789,-0.39649805426597595
1782941975849529300,7.839529296875,0.08155903965234756,-0.7787212133407593,-0.17510972917079926
1782941975859514000,7.84951416015625,0.17823544144630432,-0.6116073131561279,0.09640127420425415
1782941975869499400,7.85949951171875,0.23046615719795227,-0.40590745210647583,0.3835499584674835
1782941975879484400,7.869484375,0.2293616682291031,-0.1954500377178192,0.6405081748962402
1782941975889469400,7.879469482421875,0.2026245892047882,-0.0031815283000469208,0.8348345160484314
1782941975899454500,7.889454345703125,0.18596775829792023,0.12623918056488037,0.9579650163650513
1782941975909439200,7.899439208984375,0.18937288224697113,0.1709613800048828,0.9995226263999939
1782941975919424300,7.90942431640625,0.23563750088214874,0.13647936284542084,0.9601209163665771
1782941975929409300,7.9194091796875,0.31218448281288147,0.10795582830905914,0.8465400338172913
1782941975939394300,7.929394287109375,0.3642725646495819,0.15093845129013062,0.6858323216438293
1782941975949379300,7.93937939453125,0.38170135021209717,0.21656036376953125,0.5066404342651367
1782941975959364400,7.9493642578125,0.3782760798931122,0.25979849696159363,0.32825902104377747
1782941975969349400,7.959349365234375,0.3772510290145874,0.2974843680858612,0.1623464822769165
1782941975979334400,7.96933447265625,0.37819117307662964,0.2820408046245575,0.02901129052042961
1782941975989319400,7.9793193359375,0.3812071979045868,0.19328643381595612,-0.05579574406147003
1782941975999304200,7.98930419921875,0.3881494402885437,0.07885000109672546,-0.08870179206132889
1782941976009286400,7.999286376953125,0.39472052454948425,-0.031151873990893364,-0.065830297768116
1782941976019271400,8.009271484375,0.40891367197036743,-0.13916456699371338,-0.003194736782461405
1782941976029256400,8.01925634765625,0.4183191657066345,-0.22592689096927643,0.06914390623569489
1782941976039241200,8.0292412109375,0.4110803008079529,-0.2562301754951477,0.14381709694862366
1782941976049226200,8.039226318359376,0.39771658182144165,-0.2546525299549103,0.20911940932273865
1782941976059211300,8.049211181640626,0.38994675874710083,-0.2585688531398773,0.2692779004573822
1782941976069196500,8.059196533203124,0.3857605457305908,-0.2880822420120239,0.3142547011375427
1782941976079181300,8.069181396484375,0.371160626411438,-0.3317873775959015,0.35311880707740784
1782941976089166300,8.079166259765625,0.3290451169013977,-0.3487354516983032,0.34344592690467834
1782941976099151400,8.0891513671875,0.30736541748046875,-0.3664267361164093,0.2867283225059509
1782941976109136400,8.099136474609375,0.31829798221588135,-0.3634386658668518,0.19209660589694977
1782941976119121400,8.109121337890626,0.33131876587867737,-0.3261699080467224,0.07375496625900269
1782941976129106200,8.119106201171874,0.33634042739868164,-0.24919311702251434,-0.03491932153701782
1782941976139091200,8.12909130859375,0.3347005844116211,-0.12937024235725403,-0.0962652787566185
1782941976149076500,8.139076416015625,0.3361818492412567,0.018732676282525063,-0.1145516037940979
1782941976159061500,8.1490615234375,0.3306816518306732,0.14572001993656158,-0.10991615056991577
1782941976169046500,8.159046630859375,0.3098754286766052,0.21709778904914856,-0.0809345617890358
1782941976179031300,8.16903125,0.28074976801872253,0.20048998296260834,-0.021612808108329773
1782941976189016300,8.179016357421874,0.2638898193836212,0.1154046505689621,0.060273267328739166
1782941976199001300,8.18900146484375,0.2609390616416931,0.03705041855573654,0.14740023016929626
1782941976208986400,8.198986328125,0.25621408224105835,0.0005517955869436264,0.20543211698532104
1782941976218971100,8.20897119140625,0.24056608974933624,0.006521016359329224,0.22574658691883087
1782941976228956400,8.218956298828125,0.23435665667057037,0.0530693456530571,0.1922866255044937
1782941976238941400,8.22894140625,0.2338356226682663,0.12006008625030518,0.10416509211063385
1782941976248926500,8.238926513671874,0.23518984019756317,0.15470567345619202,-0.005436505191028118
1782941976258911500,8.248911376953124,0.24353881180286407,0.12629418075084686,-0.08611959218978882
1782941976268896300,8.258896240234375,0.249674990773201,0.07257875055074692,-0.12761589884757996
1782941976278881300,8.26888134765625,0.24978019297122955,0.007319568656384945,-0.14578379690647125
1782941976288866300,8.2788662109375,0.24539849162101746,-0.06598447263240814,-0.1711253821849823
1782941976298851300,8.288851318359375,0.250128835439682,-0.10743140429258347,-0.19356493651866913
1782941976308836400,8.29883642578125,0.2540988028049469,-0.11375241726636887,-0.208291694521904
1782941976318821400,8.3088212890625,0.2604602575302124,-0.09914296120405197,-0.19986701011657715
1782941976328806400,8.318806396484375,0.26064109802246094,-0.064201220870018,-0.16235078871250153
1782941976338792400,8.32879248046875,0.2525423765182495,-0.030480151996016502,-0.09783996641635895
1782941976348777200,8.338777099609375,0.2431105226278305,-0.03695323318243027,-0.0162564255297184
1782941976358762200,8.34876220703125,0.23403432965278625,-0.08032749593257904,0.08535008132457733
1782941976368747300,8.358747314453124,0.2253204584121704,-0.14199858903884888,0.1852356642484665
1782941976378732500,8.368732666015624,0.20484431087970734,-0.23569108545780182,0.2619200348854065
1782941976388717300,8.37871728515625,0.16524815559387207,-0.3260771632194519,0.29663780331611633
1782941976398702300,8.388702392578125,0.10397903621196747,-0.4365353286266327,0.29968416690826416
1782941976408687400,8.398687255859375,0.04941219463944435,-0.5467038750648499,0.2763061225414276
1782941976418672400,8.40867236328125,-0.0028001642785966396,-0.6456394791603088,0.24245378375053406
1782941976428657400,8.418657470703126,-0.05280927196145058,-0.7444318532943726,0.2103096842765808
1782941976438642200,8.42864208984375,-0.10375731438398361,-0.8638874888420105,0.1872992366552353
1782941976448627200,8.438627197265625,-0.15926824510097504,-1.0200352668762207,0.18403953313827515
1782941976458612500,8.448612548828125,-0.2167874574661255,-1.163629412651062,0.20532003045082092
1782941976468597500,8.458597412109375,-0.29364681243896484,-1.2241899967193604,0.22987358272075653
1782941976478582300,8.468582275390625,-0.37520235776901245,-1.1778943538665771,0.22184090316295624
1782941976488567300,8.4785673828125,-0.42238959670066833,-1.0335211753845215,0.1697113811969757
1782941976498552300,8.48855224609375,-0.4263487160205841,-0.7999017834663391,0.09962304681539536
1782941976508537300,8.498537353515625,-0.4128797650337219,-0.4984053075313568,0.04282128065824509
1782941976518522400,8.5085224609375,-0.4057208001613617,-0.18307310342788696,0.0010593542829155922
1782941976528507100,8.518507080078125,-0.3963978886604309,0.10328169167041779,-0.004028881434351206
1782941976538492400,8.528492431640625,-0.3774201273918152,0.2999887466430664,0.02288391813635826
1782941976548477400,8.5384775390625,-0.3685571253299713,0.39859840273857117,0.07472873479127884
1782941976558462500,8.54846240234375,-0.3661919832229614,0.4017004668712616,0.15343020856380463
1782941976568447200,8.558447265625,-0.34079208970069885,0.33120790123939514,0.23612429201602936
1782941976578432300,8.568432373046875,-0.2797580063343048,0.23590241372585297,0.3251979649066925
1782941976588417300,8.578417236328125,-0.20912595093250275,0.14898909628391266,0.4109770357608795
1782941976598402300,8.58840234375,-0.18211297690868378,0.3351624608039856,0.66600102186203
1782941976608387300,8.59838720703125,-0.2577001452445984,0.21630506217479706,0.9427668452262878
1782941976618372400,8.608372314453124,-0.25840330123901367,-0.0883878767490387,0.974466860294342
1782941976628357400,8.618357421875,-0.26920562982559204,-0.28971460461616516,0.883163571357727
1782941976638342400,8.62834228515625,-0.275806725025177,-0.3926125764846802,0.6679427027702332
1782941976648327400,8.638327392578125,-0.25531768798828125,-0.40994149446487427,0.41775789856910706
1782941976658312400,8.6483125,-0.2426617294549942,-0.355682373046875,0.1846437007188797
1782941976668297200,8.658297119140625,-0.23431910574436188,-0.28096792101860046,-0.0035946452990174294
1782941976678281200,8.66828125,-0.21894021332263947,-0.17825515568256378,-0.12576456367969513
1782941976688266200,8.678266357421874,-0.20584411919116974,-0.060941845178604126,-0.1813141107559204
