time,seconds_elapsed,z,y,x
1782941987187852000,0.07285205078125,-0.49776723980903625,0.2356993407011032,0.02964746579527855
1782941987197837000,0.082837158203125,-0.6011624336242676,0.2169690579175949,-0.026059186086058617
1782941987207823400,0.0928232421875,-0.7153550982475281,0.16637325286865234,-0.06325129419565201
1782941987217808100,0.10280810546875,-0.8087612986564636,0.0814262330532074,-0.05981050431728363
1782941987227793200,0.112793212890625,-0.877692461013794,0.022403128445148468,-0.001390604767948389
1782941987237778200,0.122778076171875,-0.9098313450813293,-0.006822157185524702,0.09196934103965759
1782941987247763200,0.13276318359375,-0.9018730521202087,-0.005699101835489273,0.18381163477897644
1782941987257748200,0.142748291015625,-0.8504953980445862,0.00647085253149271,0.24456004798412323
1782941987267733000,0.15273291015625,-0.7735417485237122,-0.0107424883171916,0.26525866985321045
1782941987277718000,0.162718017578125,-0.7158966660499573,-0.05205148458480835,0.270786315202713
1782941987287703300,0.172703369140625,-0.6848623156547546,-0.11612873524427414,0.2972432076931
1782941987297688300,0.182688232421875,-0.6891485452651978,-0.16768279671669006,0.3578822910785675
1782941987307673000,0.192673095703125,-0.7173378467559814,-0.15677529573440552,0.43537336587905884
1782941987317658000,0.202658203125,-0.7467421293258667,-0.11370130628347397,0.49070462584495544
1782941987327644200,0.21264404296875,-0.7705473303794861,-0.07505404204130173,0.5277225375175476
1782941987337629200,0.222629150390625,-0.7736433744430542,-0.029936371371150017,0.5408293008804321
1782941987347614200,0.2326142578125,-0.7621630430221558,-0.01464343536645174,0.5296858549118042
1782941987357599200,0.24259912109375,-0.747514545917511,-0.029630064964294434,0.5144549012184143
1782941987367584300,0.252584228515625,-0.7406086921691895,-0.052210476249456406,0.5175167322158813
1782941987377569300,0.2625693359375,-0.739653468132019,-0.05936560034751892,0.5332329869270325
1782941987387554000,0.272553955078125,-0.757062554359436,-0.06153261661529541,0.5692410469055176
1782941987397539000,0.2825390625,-0.7699507474899292,-0.04193316400051117,0.6255513429641724
1782941987407524000,0.292524169921875,-0.7883622646331787,-0.043474603444337845,0.6793900728225708
1782941987417509000,0.302509033203125,-0.7888014912605286,-0.11897752434015274,0.7256768345832825
1782941987427494400,0.312494384765625,-0.760373592376709,-0.28893351554870605,0.7550970911979675
1782941987437479200,0.322479248046875,-0.6904513239860535,-0.5041945576667786,0.7807824611663818
1782941987447465200,0.33246533203125,-0.6386322975158691,-0.6490859389305115,0.7802069187164307
1782941987457450200,0.3424501953125,-0.6390640735626221,-0.8275334239006042,0.7506900429725647
1782941987467435000,0.35243505859375,-0.6534593105316162,-0.9727427959442139,0.6943625807762146
1782941987477420000,0.362419921875,-0.6485971212387085,-1.01497220993042,0.6188657879829407
1782941987487405000,0.372405029296875,-0.6099536418914795,-0.9164255857467651,0.5304331183433533
1782941987497390300,0.382390380859375,-0.5694219470024109,-0.708881139755249,0.45382264256477356
1782941987507375400,0.392375244140625,-0.5535564422607422,-0.4952407777309418,0.3758580684661865
1782941987517360000,0.402360107421875,-0.563010573387146,-0.41969582438468933,0.2839444875717163
1782941987527345200,0.41234521484375,-0.6995822191238403,-0.277496874332428,0.2619302570819855
1782941987537330200,0.422330078125,-0.8929662108421326,-0.08227454870939255,0.33165791630744934
1782941987547315200,0.432315185546875,-1.0888047218322754,0.15331533551216125,0.4748089611530304
1782941987557301200,0.44230126953125,-1.266305923461914,0.3353465795516968,0.6593644022941589
1782941987567286300,0.452286376953125,-1.4291326999664307,0.30507710576057434,0.8431015014648438
1782941987577271300,0.462271240234375,-1.5582820177078247,0.055425286293029785,1.005963683128357
1782941987587256300,0.47225634765625,-1.6903636455535889,-0.39024806022644043,1.0709106922149658
1782941987597241000,0.482240966796875,-1.8591629266738892,-0.9426524043083191,1.0576870441436768
1782941987607226000,0.49222607421875,-2.0378167629241943,-1.3460116386413574,1.0459251403808594
1782941987617211100,0.502211181640625,-2.1759700775146484,-1.5734541416168213,1.0151211023330688
1782941987627196200,0.512196044921875,-2.221788167953491,-1.6703007221221924,0.911855936050415
1782941987637181200,0.52218115234375,-2.13690447807312,-1.433682918548584,0.7026636004447937
1782941987647166200,0.532166259765625,-1.9021251201629639,-0.3897567689418793,0.29146891832351685
1782941987657151200,0.542151123046875,-1.4862929582595825,1.0565836429595947,-0.030930010601878166
1782941987667136300,0.55213623046875,-1.0332449674606323,1.9477527141571045,-0.279170423746109
1782941987677121300,0.562121337890625,-0.6869084239006042,2.3975656032562256,-0.638920783996582
1782941987687107300,0.572107421875,-0.45037952065467834,2.4304614067077637,-0.9942128658294678
1782941987697092400,0.58209228515625,-0.3332214951515198,2.1430225372314453,-1.2058087587356567
1782941987707077400,0.592077392578125,-0.366899311542511,1.7824703454971313,-1.3121192455291748
1782941987717062400,0.6020625,-0.4861434996128082,1.366998553276062,-1.3207212686538696
1782941987727047400,0.61204736328125,-0.5357201099395752,0.9340019226074219,-1.288343906402588
1782941987737032400,0.622032470703125,-0.4769318699836731,0.5051617622375488,-1.2131048440933228
1782941987747017500,0.632017578125,-0.3828178644180298,0.10574783384799957,-1.109574794769287
1782941987757002200,0.642002197265625,-0.31533879041671753,-0.37267565727233887,-1.0074611902236938
1782941987766987300,0.6519873046875,-0.29951056838035583,-0.8760482668876648,-0.9482694864273071
1782941987776972300,0.66197216796875,-0.28061777353286743,-1.155241847038269,-0.9025262594223022
1782941987786957300,0.671957275390625,-0.23993398249149323,-1.1081303358078003,-0.8581990003585815
1782941987796942600,0.681942626953125,-0.2581840455532074,-0.8730214834213257,-0.8479610085487366
1782941987806928400,0.691928466796875,-0.3984375596046448,-0.728188693523407,-0.9189044237136841
1782941987816913400,0.701913330078125,-0.6508864164352417,-0.2930217385292053,-1.222942590713501
1782941987826898400,0.7118984375,-0.9597222805023193,-0.13389787077903748,-1.4978753328323364
1782941987836883200,0.72188330078125,-1.3684033155441284,-0.9602258205413818,-1.4419326782226562
1782941987846868200,0.7318681640625,-1.6121283769607544,-2.204392433166504,-1.085045337677002
1782941987856853500,0.741853515625,-1.7881889343261719,-2.320966958999634,-0.5369888544082642
1782941987866838500,0.751838623046875,-1.8729288578033447,-1.901883602142334,-0.10434209555387497
1782941987876823600,0.761823486328125,-1.6801589727401733,-0.8448651432991028,0.4956158697605133
1782941987886808300,0.771808349609375,-1.3729374408721924,-0.24306423962116241,0.6715413331985474
1782941987896793300,0.78179345703125,-1.4353190660476685,-0.953687310218811,0.2890237271785736
1782941987906778400,0.7917783203125,-1.5317225456237793,-1.3466957807540894,-0.05199110880494118
1782941987916763400,0.801763427734375,-1.4915300607681274,-1.5374902486801147,-0.326275497674942
1782941987926749400,0.81174951171875,-1.3507678508758545,-1.2277922630310059,-0.6186213493347168
1782941987936734500,0.821734375,-1.1226409673690796,-0.7100839614868164,-0.9688461422920227
1782941987946719500,0.831719482421875,-0.9246737957000732,-0.2631342113018036,-1.3430604934692383
1782941987956704300,0.841704345703125,-0.8030670285224915,0.019334547221660614,-1.7002159357070923
1782941987966689300,0.851689208984375,-0.684310793876648,0.028426311910152435,-1.941509485244751
1782941987976674300,0.86167431640625,-0.4764159917831421,0.014393880032002926,-2.105173110961914
1782941987986659300,0.871659423828125,-0.17512540519237518,-0.31427374482154846,-2.2817821502685547
1782941987996644600,0.88164453125,0.3093005120754242,-0.7559417486190796,-2.4680752754211426
1782941988006629400,0.89162939453125,0.5845049023628235,-0.9857368469238281,-2.372556209564209
1782941988016614400,0.901614501953125,0.3017811179161072,-1.281541109085083,-2.0851011276245117
1782941988026599400,0.911599365234375,-0.1096210777759552,-1.3789459466934204,-1.7838134765625
1782941988036584400,0.92158447265625,-0.3075619339942932,-1.259020209312439,-1.5235016345977783
1782941988046570200,0.9315703125,-0.2541983127593994,-1.1351261138916016,-1.3128769397735596
1782941988056555300,0.94155517578125,0.008357210084795952,-0.956507682800293,-1.086890697479248
1782941988066540500,0.95154052734375,0.34828096628189087,-0.6702333092689514,-0.8109552264213562
1782941988076525600,0.961525634765625,0.6402140855789185,-0.24505794048309326,-0.5893719792366028
1782941988086510300,0.97151025390625,0.7991076111793518,0.07604311406612396,-0.429421991109848
1782941988096495400,0.981495361328125,0.7974569797515869,0.34533944725990295,-0.23993685841560364
1782941988106480400,0.99148046875,0.5906076431274414,0.3364713788032532,0.007593309972435236
1782941988116465400,1.00146533203125,0.2459535002708435,0.06357361376285553,0.3592959940433502
1782941988126450200,1.0114501953125,-0.0793050080537796,-0.07405295968055725,0.8068713545799255
1782941988136435200,1.021435302734375,-0.31626230478286743,0.020958643406629562,1.2670364379882812
1782941988146420500,1.03142041015625,-0.5036510825157166,0.1940222978591919,1.63601553440094
1782941988156405500,1.041405517578125,-0.7174020409584045,0.2981165945529938,1.6572185754776
1782941988166390500,1.051390625,-0.8590473532676697,0.2679602801799774,1.2070740461349487
1782941988176376300,1.061376220703125,-0.7849475145339966,0.3564029932022095,0.5477851033210754
1782941988186361300,1.071361328125,-0.541120707988739,0.5765657424926758,-0.01089736819267273
1782941988196346400,1.081346435546875,-0.3344970643520355,0.7384798526763916,-0.4621944725513458
1782941988206331400,1.091331298828125,-0.2993451952934265,0.767958402633667,-0.8219361305236816
1782941988216316400,1.10131640625,-0.38969525694847107,0.7589039206504822,-0.9887601137161255
1782941988226301400,1.111301513671875,-0.5112988948822021,0.7743803262710571,-0.9621604681015015
1782941988236286500,1.121286376953125,-0.6173539757728577,0.7788166403770447,-0.8507413268089294
1782941988246271500,1.131271484375,-0.6775632500648499,0.7209514379501343,-0.7518495917320251
1782941988256256300,1.14125634765625,-0.6839002966880798,0.6345890164375305,-0.7015119194984436
1782941988266241300,1.1512412109375,-0.6504427194595337,0.5183153748512268,-0.6655855774879456
1782941988276226300,1.161226318359375,-0.5933941602706909,0.3763304650783539,-0.6115592122077942
1782941988286211600,1.171211669921875,-0.5342490673065186,0.22674444317817688,-0.521750271320343
1782941988296197400,1.181197265625,-0.5072166323661804,0.06377054005861282,-0.40118834376335144
1782941988306182400,1.191182373046875,-0.4830628037452698,-0.04924815520644188,-0.23911447823047638
1782941988316167400,1.20116748046875,-0.4416675865650177,-0.05765478312969208,-0.09459710866212845
1782941988326152400,1.21115234375,-0.4195106029510498,-0.029303839430212975,0.0012551210820674896
1782941988336137200,1.22113720703125,-0.44288191199302673,0.012795459479093552,0.023392710834741592
1782941988346122200,1.231122314453125,-0.4669334590435028,0.07392273098230362,0.0038182104472070932
1782941988356107500,1.241107421875,-0.46059417724609375,0.16628019511699677,-0.0027960320003330708
1782941988366092500,1.251092529296875,-0.41997644305229187,0.35862618684768677,0.05909689515829086
1782941988376077300,1.261077392578125,-0.3559616506099701,0.6683404445648193,0.18818728625774384
1782941988386062300,1.271062255859375,-0.2631382346153259,1.0908693075180054,0.32254377007484436
1782941988396047400,1.28104736328125,-0.13861216604709625,1.6030080318450928,0.40609654784202576
1782941988406032400,1.291032470703125,-0.028207628056406975,2.0701446533203125,0.43246158957481384
1782941988416018400,1.301018310546875,0.034704141318798065,2.429790496826172,0.4605931341648102
1782941988426003500,1.31100341796875,0.08547064661979675,2.6986470222473145,0.5505243539810181
1782941988435988500,1.320988525390625,0.10362029820680618,2.876213312149048,0.7016534209251404
1782941988445973500,1.330973388671875,0.06793127954006195,3.031167507171631,0.8513694405555725
1782941988455958300,1.340958251953125,0.05850669741630554,3.352506160736084,0.9655478000640869
1782941988465943300,1.350943359375,0.21011540293693542,3.7413339614868164,0.965700089931488
1782941988475928300,1.36092822265625,0.5414804220199585,4.209385871887207,0.8004196882247925
1782941988485913300,1.370913330078125,0.9375782608985901,4.38223934173584,0.4868534803390503
1782941988495898400,1.3808984375,1.1902223825454712,3.9335975646972656,0.09738855063915253
1782941988505883400,1.39088330078125,1.204819679260254,2.821258544921875,-0.22664996981620789
1782941988515868400,1.400868408203125,0.903028666973114,1.2272335290908813,-0.4124769866466522
1782941988525853400,1.410853515625,0.3996446132659912,-0.7552222013473511,-0.4641154110431671
1782941988535839200,1.420839111328125,-0.04468031972646713,-2.7389373779296875,-0.3489933907985687
1782941988545824300,1.43082421875,-0.285592257976532,-3.9408202171325684,-0.06432677060365677
1782941988555809500,1.4408095703125,-0.07714682072401047,-3.801546335220337,0.44495001435279846
1782941988565794600,1.450794677734375,0.45045602321624756,-2.738069534301758,1.1306157112121582
1782941988575779300,1.460779296875,0.8549184799194336,-1.4644091129302979,1.749807357788086
1782941988585764400,1.470764404296875,0.9616345167160034,-0.49412575364112854,2.0374648571014404
1782941988595749400,1.480749267578125,0.7786020040512085,-0.0755150318145752,1.8624141216278076
1782941988605734400,1.490734375,0.3994927406311035,-0.17394040524959564,1.3269896507263184
1782941988615719400,1.500719482421875,-0.10358315706253052,-0.6409095525741577,0.6701701879501343
1782941988625704200,1.5107041015625,-0.5954519510269165,-1.1666743755340576,0.06588717550039291
1782941988635689500,1.520689453125,-1.0025355815887451,-1.5601850748062134,-0.44499456882476807
1782941988645674500,1.530674560546875,-1.2482860088348389,-1.6719781160354614,-0.7524399757385254
1782941988655659500,1.540659423828125,-1.332131266593933,-1.409110426902771,-0.7726455330848694
1782941988665645300,1.550645263671875,-1.4092026948928833,-0.8432044386863708,-0.545150876045227
1782941988675630300,1.56063037109375,-1.4614917039871216,-0.17504096031188965,-0.19621481001377106
1782941988685615400,1.570615478515625,-1.4490033388137817,0.4643544554710388,0.10044480860233307
1782941988695600400,1.580600341796875,-1.3610318899154663,1.0066730976104736,0.2925107777118683
1782941988705585200,1.590585205078125,-1.214298129081726,1.365577220916748,0.3959578275680542
1782941988715570200,1.600570068359375,-1.0552245378494263,1.4798458814620972,0.48107433319091797
1782941988725555200,1.61055517578125,-0.8999231457710266,1.372213363647461,0.5718380212783813
1782941988735540200,1.620540283203125,-0.7586924433708191,1.134590744972229,0.6553184986114502
1782941988745525200,1.630525146484375,-0.6361321806907654,0.8460404872894287,0.7062690258026123
1782941988755510300,1.64051025390625,-0.5440971851348877,0.6204149723052979,0.6967848539352417
1782941988765495300,1.650495361328125,-0.4565063416957855,0.4298654794692993,0.648863673210144
1782941988775481300,1.6604814453125,-0.35072803497314453,0.2475866973400116,0.6046435236930847
1782941988785466000,1.670466064453125,-0.24654757976531982,0.058704398572444916,0.5969536304473877
1782941988795451100,1.680451171875,-0.17546066641807556,-0.1295015513896942,0.6165153384208679
1782941988805436400,1.6904365234375,-0.16366046667099,-0.2948950231075287,0.6397951245307922
1782941988815421400,1.70042138671875,-0.19366401433944702,-0.4089711904525757,0.6503927707672119
1782941988825406200,1.71040625,-0.24933022260665894,-0.4532100260257721,0.6469120383262634
1782941988835391200,1.72039111328125,-0.3154582381248474,-0.4341139495372772,0.6214903593063354
1782941988845376300,1.730376220703125,-0.3913479447364807,-0.36207517981529236,0.5828452110290527
1782941988855361300,1.740361328125,-0.44971516728401184,-0.19629138708114624,0.5246341824531555
1782941988865346300,1.75034619140625,-0.44045165181159973,0.07787705212831497,0.4365231990814209
1782941988875331000,1.7603310546875,-0.3901437222957611,0.3449751138687134,0.34396201372146606
1782941988885316400,1.77031640625,-0.31087446212768555,0.5488464832305908,0.27895957231521606
1782941988895301400,1.78030126953125,-0.2220849245786667,0.6945614814758301,0.25172415375709534
1782941988905287200,1.790287109375,-0.12839624285697937,0.7313717007637024,0.2648884356021881
1782941988915272200,1.800272216796875,-0.023825783282518387,0.6688432693481445,0.30200886726379395
1782941988925257200,1.81025732421875,0.06548251956701279,0.5084256529808044,0.35438498854637146
1782941988935242200,1.8202421875,0.1322297304868698,0.24518191814422607,0.4202311336994171
1782941988945227300,1.830227294921875,0.1599109023809433,-0.016545021906495094,0.5049737095832825
1782941988955212300,1.84021240234375,0.14378729462623596,-0.25296148657798767,0.5992432832717896
1782941988965197300,1.850197265625,0.08917490392923355,-0.4915767014026642,0.6876937747001648
1782941988975182300,1.860182373046875,0.012333031743764877,-0.6453635692596436,0.7387029528617859
1782941988985167400,1.87016748046875,-0.04258401319384575,-0.6760237216949463,0.7376803159713745
1782941988995152100,1.880152099609375,-0.05455312877893448,-0.608164370059967,0.6772450804710388
1782941989005137200,1.89013720703125,-0.0427665114402771,-0.4919019341468811,0.5769813060760498
1782941989015123500,1.90012353515625,-0.02717623859643936,-0.39115867018699646,0.45880821347236633
1782941989025108200,1.910108154296875,-0.011722445487976074,-0.3417581021785736,0.3393912613391876
1782941989035093200,1.92009326171875,-0.0011102929711341858,-0.364418089389801,0.2648541331291199
1782941989045078300,1.930078369140625,0.017477240413427353,-0.4525463581085205,0.26438939571380615
1782941989055063300,1.940063232421875,0.04952101409435272,-0.6197009086608887,0.3688662052154541
1782941989065048300,1.95004833984375,0.1070636659860611,-0.8309229016304016,0.5411146879196167
1782941989075033000,1.960033203125,0.173075333237648,-0.9679268002510071,0.7009018659591675
1782941989085018000,1.97001806640625,0.18977388739585876,-0.953276515007019,0.7927290201187134
1782941989095003400,1.98000341796875,0.16206978261470795,-0.7793594598770142,0.8089690804481506
1782941989104988400,1.989988525390625,0.1972072720527649,-0.47017335891723633,0.77285236120224
1782941989114973200,1.99997314453125,0.39206981658935547,0.20440439879894257,0.7234230637550354
1782941989124958200,2.009958251953125,0.7192197442054749,1.1622158288955688,0.5919694304466248
1782941989134943200,2.019943115234375,0.8919916749000549,2.0203657150268555,0.16429492831230164
1782941989144929300,2.02992919921875,0.6846792101860046,2.2826085090637207,-0.4588826596736908
1782941989154914000,2.0399140625,0.1607440710067749,1.873984456062317,-0.972767174243927
1782941989164899300,2.0498994140625,-0.5868330001831055,1.0037717819213867,-1.2179497480392456
1782941989174884400,2.05988427734375,-1.315126657485962,0.07619915902614594,-1.2683801651000977
1782941989184869400,2.069869384765625,-1.7917656898498535,-0.3151068389415741,-1.2431889772415161
1782941989194854100,2.079854248046875,-1.8601216077804565,0.0822572410106659,-1.3012851476669312
1782941989204839200,2.089839111328125,-1.5306187868118286,1.0564780235290527,-1.549257755279541
1782941989214824200,2.09982421875,-1.0202528238296509,2.0655739307403564,-1.8769768476486206
1782941989224809200,2.109809326171875,-0.6888991594314575,2.640770673751831,-2.058505058288574
1782941989234794200,2.119794189453125,-0.6581206321716309,2.299255609512329,-1.9980957508087158
1782941989244779300,2.129779296875,-0.7211555242538452,0.913478434085846,-1.7011713981628418
1782941989254765300,2.139765380859375,-0.695214569568634,-0.9798962473869324,-1.169342279434204
1782941989264750300,2.149750244140625,-0.5741137266159058,-2.673043966293335,-0.7046209573745728
1782941989274735000,2.159735107421875,-0.3759150207042694,-3.69911789894104,-0.46932515501976013
1782941989284720000,2.16972021484375,-0.14751434326171875,-3.856529712677002,-0.33126795291900635
1782941989294705200,2.179705078125,0.170281320810318,-3.2134158611297607,-0.044603604823350906
1782941989304690400,2.1896904296875,0.5665119886398315,-1.7465616464614868,0.30594882369041443
1782941989314675500,2.199675537109375,0.8583649396896362,-0.16690434515476227,0.5750679969787598
1782941989324660200,2.20966015625,0.9410818815231323,0.5744744539260864,0.6792668104171753
1782941989334645200,2.219645263671875,0.8637067079544067,0.639319121837616,0.5874162912368774
1782941989344630300,2.22963037109375,0.7643615007400513,0.2936634421348572,0.5131819844245911
1782941989354615300,2.239615234375,0.7247768640518188,-0.14945225417613983,0.5312975645065308
1782941989364600000,2.24960009765625,0.8007882833480835,-0.6130912899971008,0.62214595079422
1782941989374586400,2.25958642578125,0.9312095046043396,-1.039250373840332,0.6792135238647461
1782941989384571400,2.2695712890625,0.9968739748001099,-1.2805395126342773,0.6255865097045898
1782941989394556200,2.27955615234375,0.8972673416137695,-1.2765393257141113,0.4552340507507324
1782941989404541200,2.289541259765625,0.6860771179199219,-1.1461033821105957,0.23874889314174652
1782941989414526200,2.299526123046875,0.40030530095100403,-0.985872209072113,0.03439439460635185
1782941989424511200,2.30951123046875,0.055013664066791534,-0.7852736115455627,-0.11530162394046783
1782941989434496300,2.319496337890625,-0.3211970031261444,-0.5777949094772339,-0.2212856411933899
1782941989444481300,2.329481201171875,-0.6908445358276367,-0.46662288904190063,-0.2759976089000702
1782941989454466300,2.33946630859375,-0.9945737719535828,-0.446518212556839,-0.30962100625038147
1782941989464451300,2.349451416015625,-1.2284080982208252,-0.3727552890777588,-0.35405904054641724
1782941989474436400,2.359436279296875,-1.3844900131225586,-0.1687944382429123,-0.42931023240089417
1782941989484421400,2.36942138671875,-1.4457675218582153,0.1300380676984787,-0.49722886085510254
1782941989494407200,2.3794072265625,-1.4138388633728027,0.4310658276081085,-0.5672909021377563
1782941989504392200,2.38939208984375,-1.3384218215942383,0.6258289217948914,-0.6156943440437317
1782941989514377500,2.39937744140625,-1.233668327331543,0.7004950642585754,-0.600871741771698
1782941989524362200,2.4093623046875,-1.0975905656814575,0.6686671376228333,-0.4964418113231659
1782941989534347300,2.41934716796875,-0.9537416696548462,0.5638348460197449,-0.2785091996192932
1782941989544332300,2.429332275390625,-0.8012239933013916,0.39158421754837036,0.0015586651861667633
1782941989554317300,2.4393173828125,-0.6476598381996155,0.19931161403656006,0.2891598343849182
1782941989564302000,2.449302001953125,-0.508272647857666,0.023029262199997902,0.5501946210861206
1782941989574287000,2.459287109375,-0.37313252687454224,-0.09675973653793335,0.774004340171814
1782941989584272100,2.469272216796875,-0.2340174913406372,-0.15355457365512848,0.9359980225563049
1782941989594257400,2.47925732421875,-0.08909624814987183,-0.1678251326084137,1.029271125793457
1782941989604243200,2.4892431640625,0.043852485716342926,-0.16633589565753937,1.0578218698501587
1782941989614228200,2.499228271484375,0.1356874406337738,-0.12011225521564484,1.0279117822647095
1782941989624213200,2.509213134765625,0.18092575669288635,-0.05203546956181526,0.9603719115257263
1782941989634198300,2.5191982421875,0.19368396699428558,-0.016532322391867638,0.8529584407806396
1782941989644183000,2.52918310546875,0.15806259214878082,-0.045518700033426285,0.7153222560882568
1782941989654168300,2.539168212890625,0.09890773147344589,-0.1633709818124771,0.5880022048950195
1782941989664153300,2.5491533203125,0.027626359835267067,-0.3211776614189148,0.475671648979187
1782941989674138400,2.559138427734375,-0.03753434866666794,-0.5312348008155823,0.40268203616142273
1782941989684123400,2.569123291015625,-0.1087547317147255,-0.7494704723358154,0.36712750792503357
1782941989694108200,2.579108154296875,-0.18585535883903503,-0.9501420855522156,0.37614428997039795
1782941989704093200,2.58909326171875,-0.24140037596225739,-1.1016473770141602,0.4056912660598755
1782941989714078200,2.599078125,-0.25959619879722595,-1.1807903051376343,0.44445598125457764
1782941989724064300,2.609064208984375,-0.2550046443939209,-1.1561558246612549,0.4683155119419098
1782941989734049300,2.61904931640625,-0.22718364000320435,-1.0801466703414917,0.4879974126815796
1782941989744034300,2.629034423828125,-0.1781681627035141,-0.9566776156425476,0.5175002217292786
1782941989754019300,2.639019287109375,-0.121813103556633,-0.7877430319786072,0.5610283017158508
1782941989764004400,2.64900439453125,-0.05232244357466698,-0.6138471364974976,0.6132057309150696
1782941989773989000,2.658989013671875,0.02095257304608822,-0.4840794801712036,0.6703625917434692
1782941989783974100,2.66897412109375,0.0877411961555481,-0.4216906726360321,0.7452264428138733
1782941989793959200,2.678959228515625,0.1383572220802307,-0.4074086844921112,0.8234826326370239
1782941989803944400,2.6889443359375,0.17465877532958984,-0.44716355204582214,0.9047433733940125
1782941989813929200,2.69892919921875,0.19320055842399597,-0.5208137631416321,0.9707135558128357
1782941989823914200,2.708914306640625,0.1735600084066391,-0.5784376263618469,1.0132261514663696
1782941989833899300,2.718899169921875,0.12611517310142517,-0.563045859336853,0.9957468509674072
1782941989843885000,2.728885009765625,0.0968390479683876,-0.49897101521492004,0.9366795420646667
1782941989853870000,2.7388701171875,0.10849209874868393,-0.3437013626098633,0.8456109762191772
1782941989863855400,2.74885546875,0.14384183287620544,-0.012484547682106495,0.6850665807723999
1782941989873840400,2.75884033203125,0.17058993875980377,0.5010966658592224,0.372206449508667
1782941989883825400,2.768825439453125,0.1793256402015686,0.9604431986808777,-0.0666433647274971
1782941989893810200,2.77881005859375,0.26434820890426636,1.1938674449920654,-0.2387176752090454
1782941989903795200,2.788795166015625,0.6725612282752991,1.101773738861084,0.25092393159866333
1782941989913780200,2.7987802734375,1.351341962814331,0.32789650559425354,1.0830689668655396
1782941989923765200,2.80876513671875,1.6223124265670776,-0.9051843285560608,1.991613507270813
1782941989933750300,2.818750244140625,0.9839643239974976,-2.263504981994629,2.48270583152771
1782941989943735300,2.8287353515625,-0.49778440594673157,-3.479757308959961,1.490506887435913
1782941989953721300,2.838721435546875,-2.133547306060791,-3.6824116706848145,-1.050413966178894
1782941989963706400,2.848706298828125,-3.589891195297241,-2.2055983543395996,-3.966806411743164
1782941989973691100,2.858691162109375,-4.921876907348633,-0.052233558148145676,-5.905238151550293
1782941989983676200,2.86867626953125,-5.825464248657227,2.036618232727051,-6.18349552154541
1782941989993661200,2.8786611328125,-5.932154655456543,4.111496448516846,-5.233120441436768
1782941990003646500,2.888646484375,-5.393004894256592,5.562229156494141,-4.059375286102295
1782941990013631200,2.89863134765625,-4.489321231842041,6.094573974609375,-3.162022590637207
1782941990023616300,2.9086162109375,-3.4317121505737305,5.876996040344238,-2.485199451446533
1782941990033601300,2.918601318359375,-2.522294282913208,4.982973575592041,-1.9023500680923462
1782941990043586300,2.92858642578125,-1.8869688510894775,3.6098859310150146,-1.2525444030761719
1782941990053571300,2.9385712890625,-1.4443360567092896,2.051814317703247,-0.49440836906433105
1782941990063556000,2.94855615234375,-1.1419191360473633,0.5901277661323547,0.23265480995178223
1782941990073542400,2.95854248046875,-0.9460219144821167,-0.6080905795097351,0.7526600360870361
1782941990083527400,2.96852734375,-0.7557768821716309,-1.4419262409210205,0.9838833808898926
1782941990093512200,2.97851220703125,-0.5645167827606201,-1.8903698921203613,0.9590151906013489
1782941990103497200,2.988497314453125,-0.41886958479881287,-1.865145206451416,0.7552093267440796
1782941990113482200,2.998482177734375,-0.34439632296562195,-1.4604068994522095,0.4559289216995239
1782941990123467300,3.00846728515625,-0.32261115312576294,-0.8464362621307373,0.1320323497056961
1782941990133452300,3.018452392578125,-0.3246648609638214,-0.16194748878479004,-0.13024866580963135
1782941990143437000,3.02843701171875,-0.3145003616809845,0.44357171654701233,-0.25442251563072205
1782941990153422300,3.03842236328125,-0.2804402709007263,0.9020667672157288,-0.24260453879833221
1782941990163407400,3.048407470703125,-0.2130894809961319,1.1094330549240112,-0.11115090548992157
1782941990173392400,3.058392333984375,-0.1349969059228897,1.0490021705627441,0.08096928894519806
1782941990183378200,3.068378173828125,-0.06162948161363602,0.7544405460357666,0.29864808917045593
1782941990193363200,3.07836328125,0.025790110230445862,0.3162326216697693,0.5133405327796936
1782941990203348200,3.08834814453125,0.12715588510036469,-0.1108798161149025,0.7047709226608276
1782941990213333200,3.098333251953125,0.23239004611968994,-0.4545777440071106,0.8552980422973633
1782941990223318300,3.108318359375,0.32740578055381775,-0.7419376373291016,0.9582595825195312
1782941990233303300,3.11830322265625,0.44909006357192993,-1.0142022371292114,1.006988286972046
1782941990243288300,3.128288330078125,0.5699957013130188,-1.2555040121078491,1.0066200494766235
1782941990253273300,3.1382734375,0.6604743599891663,-1.3609843254089355,0.9901261329650879
1782941990263258000,3.148258056640625,0.7475879192352295,-1.346684217453003,0.9726395010948181
1782941990273243100,3.1582431640625,0.8278142213821411,-1.2278859615325928,0.9600605368614197
1782941990283228200,3.168228271484375,0.9238579273223877,-1.0456732511520386,0.9078364372253418
1782941990293214200,3.178214111328125,1.0250954627990723,-0.9755630493164062,0.771926999092102
1782941990303199200,3.18819921875,1.074184775352478,-1.0807744264602661,0.569075345993042
1782941990313184300,3.198184326171875,0.9908592700958252,-1.3675484657287598,0.36286139488220215
1782941990323169300,3.208169189453125,0.8300586342811584,-1.7823586463928223,0.22167284786701202
1782941990333154300,3.218154296875,0.6169809103012085,-2.146624803543091,0.16754010319709778
1782941990343139000,3.22813916015625,0.38767215609550476,-2.2575581073760986,0.10068383812904358
1782941990353124000,3.2381240234375,0.1780955046415329,-2.112830638885498,-0.08977755159139633
1782941990363109400,3.248109375,-0.025323929265141487,-1.7389652729034424,-0.4378734827041626
1782941990373094400,3.258094482421875,-0.18924519419670105,-1.2403558492660522,-0.8682268857955933
1782941990383079200,3.2680791015625,-0.30393555760383606,-0.7655408382415771,-1.255969762802124
1782941990393064200,3.278064208984375,-0.37605881690979004,-0.43465808033943176,-1.5057169198989868
1782941990403050200,3.28805029296875,-0.4317004978656769,-0.23179630935192108,-1.6095186471939087
1782941990413035300,3.29803515625,-0.5033652782440186,-0.01526808924973011,-1.594403624534607
1782941990423020300,3.308020263671875,-0.6006712913513184,0.24422021210193634,-1.5481985807418823
1782941990433005300,3.31800537109375,-0.7002660036087036,0.5161721110343933,-1.5219740867614746
1782941990442990300,3.327990234375,-0.7881036996841431,0.7928252816200256,-1.53817617893219
1782941990452975400,3.337975341796875,-0.8391006588935852,1.0214242935180664,-1.5850163698196411
1782941990462960000,3.347960205078125,-0.8495519757270813,1.1906921863555908,-1.6471590995788574
1782941990472945200,3.357945068359375,-0.8273418545722961,1.2713109254837036,-1.6923452615737915
1782941990482930200,3.36793017578125,-0.7791240215301514,1.2438358068466187,-1.6906993389129639
1782941990492915200,3.377915283203125,-0.699891209602356,1.1331714391708374,-1.6520682573318481
1782941990502900500,3.387900390625,-0.5864229798316956,0.9545484185218811,-1.5701608657836914
1782941990512886300,3.39788623046875,-0.4728357493877411,0.7617706656455994,-1.429727554321289
1782941990522871300,3.407871337890625,-0.36812663078308105,0.6064074635505676,-1.257813572883606
1782941990532856300,3.417856201171875,-0.2731015980243683,0.4973171651363373,-1.0932152271270752
1782941990542841000,3.427841064453125,-0.18048936128616333,0.3585011959075928,-0.9608414769172668
1782941990552826000,3.437826171875,-0.07791471481323242,0.19227074086666107,-0.8366659283638
1782941990562811400,3.447811279296875,0.05819785222411156,0.02588522434234619,-0.7115088105201721
1782941990572796400,3.45779638671875,0.199136883020401,-0.14510944485664368,-0.5815163850784302
1782941990582781400,3.467781494140625,0.3130890130996704,-0.34720370173454285,-0.4412010908126831
1782941990592766200,3.47776611328125,0.3573707640171051,-0.4915471374988556,-0.2763768434524536
1782941990602751200,3.487751220703125,0.33978697657585144,-0.5473898649215698,-0.0988321378827095
1782941990612736300,3.497736328125,0.2880931794643402,-0.5312522649765015,0.06211964413523674
1782941990622722000,3.50772216796875,0.2653023600578308,-0.4886419177055359,0.1816077083349228
1782941990632707300,3.517707275390625,0.27467599511146545,-0.41184115409851074,0.2504417300224304
1782941990642692400,3.5276923828125,0.27956581115722656,-0.27179858088493347,0.3080453872680664
1782941990652677400,3.537677490234375,0.26607415080070496,-0.07892902195453644,0.3889046013355255
1782941990662662100,3.547662109375,0.21553722023963928,0.130803182721138,0.5237018465995789
1782941990672647200,3.557647216796875,0.16060276329517365,0.4111938178539276,0.6791450381278992
1782941990682632200,3.567632080078125,0.16367977857589722,0.7153459787368774,0.8144932985305786
1782941990692617700,3.57761767578125,0.23444204032421112,1.0223149061203003,0.9052034020423889
1782941990702602800,3.587602783203125,0.37859734892845154,1.2193043231964111,0.9115750193595886
1782941990712587500,3.59758740234375,0.5116837620735168,1.1763185262680054,0.7223755717277527
1782941990722572500,3.607572509765625,0.4529040455818176,0.9467123746871948,0.38364356756210327
1782941990732558800,3.617558837890625,0.011824195273220539,0.5475285053253174,-0.015340900979936123
1782941990742543600,3.627543701171875,-0.7074359059333801,-0.4355930984020233,-0.4744586646556854
1782941990752528600,3.637528564453125,-1.435640573501587,-1.460639476776123,-0.868604838848114
1782941990762513700,3.647513671875,-1.774186134338379,-2.0803744792938232,-0.8626242280006409
1782941990772498700,3.657498779296875,-1.7558746337890625,-1.6411057710647583,0.0651431679725647
1782941990782483500,3.6674833984375,-1.525930643081665,0.05441218987107277,1.179678201675415
1782941990792468500,3.677468505859375,-0.8285123109817505,2.239790201187134,1.77078115940094
1782941990802453500,3.68745361328125,0.2133602499961853,3.981492757797241,1.8201473951339722
1782941990812438800,3.697438720703125,1.2434848546981812,4.56384801864624,1.7337920665740967
1782941990822423800,3.707423828125,1.934183120727539,3.9675543308258057,1.8775243759155273
1782941990832408600,3.71740869140625,2.244453191757202,2.5386509895324707,2.3047497272491455
1782941990842394600,3.72739453125,2.2820868492126465,0.8239973783493042,2.882026433944702
1782941990852379600,3.737379638671875,2.094087600708008,-0.9768308401107788,3.3030149936676025
1782941990862364400,3.747364501953125,1.779714822769165,-2.6232283115386963,3.453702688217163
1782941990872349700,3.757349609375,1.4609296321868896,-3.916752815246582,3.424971103668213
1782941990882334700,3.767334716796875,1.1566309928894043,-4.612856864929199,3.320056915283203
1782941990892319700,3.77731982421875,0.8471677303314209,-4.640449047088623,3.1042089462280273
1782941990902304800,3.7873046875,0.45011359453201294,-4.0497589111328125,2.6168253421783447
1782941990912289500,3.79728955078125,-0.02969268150627613,-3.2552804946899414,1.9205284118652344
1782941990922274600,3.807274658203125,-0.469621866941452,-2.343958616256714,1.2345309257507324
1782941990932259600,3.817259521484375,-0.8224850296974182,-1.3010308742523193,0.6647606492042542
1782941990942245600,3.82724560546875,-1.0857572555541992,-0.38519299030303955,0.23835904896259308
1782941990952230700,3.837230712890625,-1.2109166383743286,0.2462330162525177,-0.058764781802892685
1782941990962215700,3.847215576171875,-1.2219122648239136,0.6822504997253418,-0.1931271106004715
1782941990972200700,3.85720068359375,-1.1615478992462158,0.9300954937934875,-0.168234720826149
1782941990982185700,3.867185791015625,-1.0783333778381348,0.9575124979019165,-0.010370250791311264
1782941990992170500,3.87717041015625,-0.9674026370048523,0.8015244007110596,0.2255643755197525
1782941991002155500,3.887155517578125,-0.88089919090271,0.5300489664077759,0.4804328978061676
1782941991012140800,3.897140869140625,-0.8304758071899414,0.24896962940692902,0.7338412404060364
1782941991022125800,3.907125732421875,-0.7898008227348328,0.008214280940592289,0.9520550966262817
1782941991032110600,3.917110595703125,-0.7316775321960449,-0.1889941245317459,1.1090903282165527
1782941991042095600,3.927095703125,-0.6711627840995789,-0.27928751707077026,1.1923905611038208
1782941991052081700,3.93708154296875,-0.6082208752632141,-0.25119295716285706,1.1866014003753662
1782941991062066400,3.94706640625,-0.5455449223518372,-0.1309480518102646,1.0850539207458496
1782941991072051500,3.957051513671875,-0.4551677107810974,0.06581524014472961,0.9042962789535522
1782941991082036700,3.96703662109375,-0.34829533100128174,0.2610156238079071,0.6796945929527283
1782941991092021800,3.977021728515625,-0.20511889457702637,0.3813766837120056,0.4628857970237732
1782941991102006800,3.9870068359375,-0.03804362192749977,0.33652159571647644,0.2635769546031952
1782941991111991600,3.996991455078125,0.1343216747045517,0.14494067430496216,0.14025601744651794
1782941991121976600,4.0069765625,0.27126622200012207,-0.11498838663101196,0.12153666466474533
1782941991131961600,4.016961669921875,0.3241439163684845,-0.3908788561820984,0.2091498225927353
1782941991141946600,4.026946533203125,0.29052576422691345,-0.6341708898544312,0.35091495513916016
1782941991151931600,4.036931640625,0.2477022111415863,-0.8649532198905945,0.4653465151786804
1782941991161917700,4.046917724609375,0.22051160037517548,-1.0498508214950562,0.49229663610458374
1782941991171902700,4.05690283203125,0.22120331227779388,-1.170947790145874,0.43393850326538086
1782941991181887700,4.0668876953125,0.24489745497703552,-1.2386194467544556,0.3101252317428589
1782941991191872500,4.07687255859375,0.2971158027648926,-1.2354029417037964,0.16372567415237427
1782941991201857500,4.086857421875,0.36408549547195435,-1.1691017150878906,0.02846398763358593
1782941991211842600,4.096842529296875,0.4169425964355469,-1.0663615465164185,-0.06557292491197586
1782941991221827800,4.106827880859375,0.4505884349346161,-0.9476298689842224,-0.11530213057994843
1782941991231812600,4.1168125,0.4833911061286926,-0.812313973903656,-0.12966924905776978
1782941991241797600,4.126797607421875,0.524165689945221,-0.6493301391601562,-0.1385658085346222
1782941991251782700,4.13678271484375,0.573696494102478,-0.4843238294124603,-0.15633925795555115
1782941991261767700,4.146767578125,0.6431847810745239,-0.35287711024284363,-0.1995043009519577
1782941991271753500,4.15675341796875,0.7408360838890076,-0.25748157501220703,-0.2824185788631439
1782941991281738500,4.166738525390625,0.8444234728813171,-0.17043083906173706,-0.38775700330734253
1782941991291723800,4.176723876953125,0.9176401495933533,-0.10703344643115997,-0.49290239810943604
1782941991301708800,4.186708740234375,0.9574283361434937,-0.042348459362983704,-0.574714183807373
1782941991311693600,4.196693603515625,0.9707174897193909,0.034885965287685394,-0.6099397540092468
1782941991321678600,4.2066787109375,0.9783127903938293,0.12220995128154755,-0.6012455821037292
1782941991331663600,4.21666357421875,1.014639973640442,0.2514225244522095,-0.536026656627655
1782941991341648600,4.226648681640625,1.083323359489441,0.494100421667099,-0.44543391466140747
1782941991351633700,4.236633544921875,1.1614782810211182,0.8512411713600159,-0.34027862548828125
1782941991361618400,4.246618408203125,1.2983598709106445,1.3972622156143188,-0.19349637627601624
1782941991371604700,4.256604736328125,1.6049798727035522,1.997429370880127,-0.09509903937578201
1782941991381589800,4.26658984375,2.034834146499634,2.2706480026245117,-0.2405228167772293
1782941991391574500,4.276574462890625,2.2476353645324707,1.9541568756103516,-0.6920909285545349
1782941991401559600,4.2865595703125,1.8679171800613403,0.9739881157875061,-1.289218544960022
1782941991411544600,4.296544677734375,0.7204101085662842,-0.6462039947509766,-1.950783610343933
1782941991421529600,4.306529541015625,-0.9483660459518433,-2.5549416542053223,-2.803889274597168
1782941991431514600,4.3165146484375,-2.5027880668640137,-3.866755962371826,-3.901416301727295
1782941991441499600,4.326499755859375,-3.628023862838745,-3.953432559967041,-5.000341892242432
1782941991451484700,4.336484619140625,-4.362635135650635,-2.8931822776794434,-5.680014610290527
1782941991461469700,4.3464697265625,-4.595365047454834,-1.1825205087661743,-6.075576305389404
1782941991471454700,4.356454833984375,-4.608955383300781,1.2005671262741089,-6.390984535217285
1782941991481440500,4.3664404296875,-4.430525779724121,3.888019561767578,-6.140975475311279
1782941991491425500,4.376425537109375,-3.898704767227173,5.826800346374512,-5.485872268676758
1782941991501410800,4.386410888671875,-3.1576552391052246,6.68508768081665,-4.617487907409668
1782941991511395600,4.3963955078125,-2.426335096359253,6.55801248550415,-3.616333484649658
1782941991521380600,4.406380615234375,-1.8321430683135986,5.65290641784668,-2.4997143745422363
1782941991531368700,4.41636865234375,-1.3665105104446411,4.353239059448242,-1.3814133405685425
1782941991541354800,4.426354736328125,-1.0207746028900146,2.762629270553589,-0.38479891419410706
1782941991551339500,4.436339599609375,-0.7837461829185486,1.2677884101867676,0.31951704621315
1782941991561324500,4.446324462890625,-0.625675618648529,0.25487619638442993,0.5645886063575745
1782941991571309600,4.4563095703125,-0.5569549202919006,-0.5417888164520264,0.5332145690917969
1782941991581294600,4.466294677734375,-0.6324108242988586,-1.1170339584350586,0.36472833156585693
1782941991591279900,4.47627978515625,-0.7805090546607971,-1.4329047203063965,0.10098845511674881
1782941991601264600,4.4862646484375,-0.9060161113739014,-1.5532764196395874,-0.2476893663406372
1782941991611249700,4.496249755859375,-0.9809443354606628,-1.501186728477478,-0.6421687006950378
1782941991621234700,4.506234619140625,-1.0432229042053223,-1.317600131034851,-1.016331672668457
1782941991631219700,4.5162197265625,-1.1026018857955933,-1.0613477230072021,-1.300655484199524
1782941991641205500,4.52620556640625,-1.1632790565490723,-0.8016205430030823,-1.4291114807128906
1782941991651190500,4.5361904296875,-1.1942518949508667,-0.6091434955596924,-1.4038236141204834
1782941991661175800,4.54617578125,-1.1620404720306396,-0.48905202746391296,-1.2654212713241577
1782941991671160600,4.55616064453125,-1.0477614402770996,-0.4628666341304779,-1.0547130107879639
1782941991681145600,4.5661455078125,-0.8634743094444275,-0.47338157892227173,-0.7994841933250427
1782941991691130600,4.576130615234375,-0.6157299280166626,-0.5175825953483582,-0.5336709022521973
1782941991701115600,4.58611572265625,-0.3331345021724701,-0.5593920946121216,-0.27489766478538513
1782941991711100700,4.5961005859375,-0.03746221214532852,-0.5674307942390442,-0.0336742140352726
1782941991721085400,4.60608544921875,0.24021095037460327,-0.5588857531547546,0.17711712419986725
1782941991731070500,4.616070556640625,0.477173775434494,-0.5013941526412964,0.3470820486545563
1782941991741055500,4.626055419921875,0.682465672492981,-0.38158118724823,0.4846169948577881
1782941991751041500,4.63604150390625,0.8804721832275391,-0.2522728741168976,0.5963636040687561
1782941991761026600,4.646026611328125,1.0590547323226929,-0.1520935446023941,0.6991365551948547
1782941991771011600,4.656011474609375,1.231467604637146,-0.07862429320812225,0.8079765439033508
1782941991780996600,4.66599658203125,1.4022257328033447,-0.0305332001298666,0.9214146733283997
1782941991790981600,4.675981689453125,1.5542486906051636,-0.011321001686155796,1.031650424003601
1782941991800966400,4.68596630859375,1.6363307237625122,0.017705056816339493,1.1495954990386963
1782941991810951400,4.695951416015625,1.6486784219741821,0.05787971243262291,1.2710716724395752
1782941991820936400,4.7059365234375,1.6194446086883545,0.10711757093667984,1.378456473350525
1782941991830921700,4.715921630859375,1.6082535982131958,0.16359646618366241,1.4555244445800781
1782941991840906500,4.725906494140625,1.6578434705734253,0.22940397262573242,1.453609824180603
1782941991850891500,4.7358916015625,1.7303495407104492,0.30449241399765015,1.3868520259857178
1782941991860877600,4.745877685546875,1.7904722690582275,0.36121028661727905,1.2975873947143555
1782941991870862600,4.755862548828125,1.8198846578598022,0.44231295585632324,1.2881819009780884
1782941991880847400,4.765847412109375,1.809600830078125,0.5785130858421326,1.3939650058746338
1782941991890832600,4.77583251953125,1.8017877340316772,0.7916361689567566,1.5870698690414429
1782941991900817700,4.785817626953125,1.781043529510498,1.0929664373397827,1.7438232898712158
1782941991910802700,4.795802734375,1.7037802934646606,1.2748372554779053,1.6013728380203247
1782941991920787500,4.805787353515625,1.562396764755249,1.244870662689209,1.1623728275299072
1782941991930772500,4.8157724609375,1.3818421363830566,1.1993242502212524,0.6082300543785095
1782941991940757500,4.825757568359375,1.2390387058258057,1.069077491760254,-0.018413837999105453
1782941991950742500,4.835742431640625,1.1210516691207886,0.8664875030517578,-0.6592786312103271
1782941991960728600,4.845728515625,1.0849863290786743,0.514618456363678,-1.225999355316162
1782941991970713600,4.855713623046875,1.127451777458191,0.11993645131587982,-1.4364254474639893
1782941991980698600,4.86569873046875,1.1422595977783203,-0.351906418800354,-1.129906177520752
1782941991990683600,4.87568359375,1.2537938356399536,-0.659418523311615,-0.29013824462890625
1782941992000668400,4.88566845703125,1.6446802616119385,-0.6236623525619507,0.7909477949142456
1782941992010653400,4.8956533203125,2.346264362335205,-0.35518383979797363,1.8773466348648071
1782941992020638500,4.905638427734375,3.0600855350494385,0.007400729693472385,2.828853130340576
1782941992030623500,4.91562353515625,3.4960551261901855,0.03538372367620468,3.4376308917999268
1782941992040608800,4.92560888671875,3.5763823986053467,-0.4262547492980957,3.7135322093963623
1782941992050593500,4.935593505859375,3.292569637298584,-1.135584831237793,3.770390033721924
1782941992060579600,4.94557958984375,2.757236957550049,-1.9269276857376099,3.668062210083008
1782941992070564600,4.955564697265625,2.135856866836548,-2.660338878631592,3.4296414852142334
1782941992080549400,4.96554931640625,1.5512280464172363,-3.2342309951782227,3.0629403591156006
1782941992090534400,4.975534423828125,1.071931004524231,-3.6524930000305176,2.5881316661834717
1782941992100519700,4.985519775390625,0.6827079057693481,-3.6671552658081055,2.045851469039917
1782941992110504700,4.995504638671875,0.3439496159553528,-3.1530282497406006,1.4296056032180786
1782941992120489500,5.005489501953125,-0.025987157598137856,-2.311185121536255,0.769829273223877
1782941992130474500,5.015474609375,-0.413053035736084,-1.3798954486846924,0.16489270329475403
1782941992140459500,5.02545947265625,-0.7567789554595947,-0.48735249042510986,-0.31009936332702637
1782941992150444500,5.035444580078125,-1.0049958229064941,0.3190147280693054,-0.6446713805198669
1782941992160430300,5.045430419921875,-1.1418503522872925,0.9221248030662537,-0.8578076362609863
1782941992170415600,5.05541552734375,-1.192884087562561,1.2956041097640991,-0.9542228579521179
1782941992180400600,5.065400634765625,-1.1739133596420288,1.476335883140564,-0.9515279531478882
1782941992190385700,5.0753857421875,-1.079814076423645,1.509943962097168,-0.8752447962760925
1782941992200370400,5.085370361328125,-0.9448472261428833,1.4070905447006226,-0.7277264595031738
1782941992210355500,5.09535546875,-0.7849125862121582,1.1955199241638184,-0.5302829742431641
1782941992220340500,5.105340576171875,-0.5907255411148071,0.9082602858543396,-0.2870127856731415
1782941992230325500,5.115325439453125,-0.37490612268447876,0.5430014729499817,-0.029343927279114723
1782941992240310500,5.125310546875,-0.1545303612947464,0.1415025293827057,0.242241770029068
1782941992250295600,5.135295654296875,0.028422797098755836,-0.25919491052627563,0.5554394125938416
1782941992260280600,5.145280517578125,0.15956376492977142,-0.6264975666999817,0.9008727073669434
1782941992270266600,5.1552666015625,0.24096056818962097,-0.9491084814071655,1.2536005973815918
1782941992280251400,5.16525146484375,0.2847626507282257,-1.2424542903900146,1.5650980472564697
1782941992290236400,5.175236328125,0.2915213108062744,-1.5076324939727783,1.8171249628067017
1782941992300221400,5.185221435546875,0.2722056806087494,-1.7207351922988892,1.9827357530593872
1782941992310206700,5.195206787109375,0.24167500436306,-1.8624768257141113,2.048783302307129
1782941992320191700,5.205191650390625,0.21782399713993073,-1.9145421981811523,2.032794237136841
1782941992330176500,5.215176513671875,0.21369390189647675,-1.883937120437622,1.9406503438949585
1782941992340161500,5.22516162109375,0.23078553378582,-1.8121631145477295,1.7920286655426025
1782941992350146600,5.235146484375,0.26306644082069397,-1.6996231079101562,1.6027498245239258
1782941992360131600,5.245131591796875,0.28855156898498535,-1.5461426973342896,1.3996411561965942
1782941992370117600,5.25511767578125,0.2973881661891937,-1.361207365989685,1.1983505487442017
1782941992380102700,5.2651025390625,0.2561834752559662,-1.1382869482040405,1.013401746749878
1782941992390087700,5.275087646484375,0.14354698359966278,-0.9123146533966064,0.8668180704116821
1782941992400072400,5.285072509765625,0.0019187512807548046,-0.6931349039077759,0.751623272895813
1782941992410057500,5.295057373046875,-0.13406407833099365,-0.4925563633441925,0.6511512398719788
1782941992420042500,5.30504248046875,-0.2646535038948059,-0.31927061080932617,0.5578628182411194
1782941992430027500,5.315027587890625,-0.3838205933570862,-0.20510298013687134,0.4650171399116516
1782941992440012500,5.325012451171875,-0.4797021150588989,-0.1479555368423462,0.3556041121482849
1782941992449997600,5.33499755859375,-0.5396653413772583,-0.10025852173566818,0.2156868577003479
1782941992459982600,5.344982666015625,-0.5641086101531982,-0.007436440326273441,0.05082014203071594
1782941992469967600,5.354967529296875,-0.5618030428886414,0.08135299384593964,-0.13617050647735596
1782941992479953400,5.364953369140625,-0.5135212540626526,0.13315173983573914,-0.34059739112854004
1782941992489938400,5.3749384765625,-0.41339439153671265,0.1026240885257721,-0.5483458638191223
1782941992499923500,5.38492333984375,-0.28480765223503113,-0.02100197970867157,-0.7242910861968994
1782941992509908500,5.394908447265625,-0.2275666743516922,-0.16187387704849243,-0.798811674118042
1782941992519893800,5.404893798828125,-0.2480200082063675,-0.0839196965098381,-0.6731235384941101
1782941992529878500,5.41487841796875,-0.2662302255630493,0.2982272803783417,-0.2663610577583313
1782941992539863600,5.424863525390625,-0.2547762393951416,0.5827317237854004,0.22773469984531403
1782941992549848600,5.4348486328125,-0.25034695863723755,0.45216280221939087,0.470523476600647
1782941992559833600,5.44483349609375,-0.20681944489479065,0.05587884783744812,0.6012660264968872
1782941992569818600,5.454818603515625,-0.24882352352142334,-0.6949224472045898,0.6074082255363464
1782941992579804700,5.4648046875,-0.4941171705722809,-1.4455021619796753,0.13312563300132751
1782941992589789700,5.474789794921875,-1.014813780784607,-1.7118587493896484,-0.9716943502426147
1782941992599774700,5.484774658203125,-1.7405445575714111,-1.443577766418457,-2.3563475608825684
1782941992609759500,5.494759521484375,-2.5370569229125977,-0.7762704491615295,-3.604048490524292
1782941992619744500,5.50474462890625,-3.1498770713806152,0.17849276959896088,-4.46975564956665
1782941992629729500,5.5147294921875,-3.4494946002960205,1.1629806756973267,-5.050812244415283
1782941992639714600,5.524714599609375,-3.5467493534088135,2.059309720993042,-5.3135480880737305
1782941992649699300,5.53469921875,-3.3577182292938232,2.667818546295166,-5.157934188842773
1782941992659684600,5.5446845703125,-2.8035521507263184,2.9474122524261475,-4.591078758239746
1782941992669669600,5.554669677734375,-1.9982473850250244,2.775900363922119,-3.7351019382476807
1782941992679655400,5.564655517578125,-1.1472201347351074,2.248540163040161,-2.7597496509552
1782941992689640000,5.574639892578125,-0.4142853617668152,1.5187572240829468,-1.742219090461731
1782941992699625000,5.584625,0.1693708598613739,0.7086305618286133,-0.7315744757652283
1782941992709610200,5.5946103515625,0.6027504801750183,-0.08210970461368561,0.19405081868171692
1782941992719595300,5.60459521484375,0.8839525580406189,-0.778117299079895,0.9548965096473694
1782941992729580300,5.614580322265625,1.0191694498062134,-1.3039708137512207,1.4907245635986328
1782941992739565000,5.62456494140625,1.0407357215881348,-1.6156378984451294,1.7722755670547485
1782941992749550000,5.634550048828125,0.9933580756187439,-1.6864045858383179,1.8106861114501953
1782941992759535000,5.64453515625,0.8994430303573608,-1.467773199081421,1.6645443439483643
1782941992769520000,5.65452001953125,0.7581599950790405,-1.0171586275100708,1.3833117485046387
1782941992779506200,5.664506103515625,0.6282142400741577,-0.45019111037254333,1.0167479515075684
1782941992789491200,5.6744912109375,0.5411924719810486,0.1258215755224228,0.6152420043945312
1782941992799476200,5.684476318359375,0.4972255825996399,0.6487481594085693,0.24479946494102478
1782941992809461000,5.6944609375,0.48859360814094543,1.0800480842590332,-0.05757688358426094
1782941992819446000,5.704446044921875,0.49253615736961365,1.4280656576156616,-0.28383827209472656
1782941992829431000,5.71443115234375,0.5076475739479065,1.6212280988693237,-0.4229685068130493
1782941992839416000,5.724416015625,0.5314311981201172,1.59983491897583,-0.46692636609077454
1782941992849401300,5.7344013671875,0.5730909109115601,1.392331600189209,-0.40268442034721375
1782941992859386000,5.74438623046875,0.6146029233932495,1.0864521265029907,-0.23745205998420715
1782941992869371100,5.75437109375,0.6386656761169434,0.8055444359779358,-0.02933267131447792
1782941992879357200,5.764357177734375,0.657889187335968,0.5583977699279785,0.18739111721515656
1782941992889342000,5.774342041015625,0.679481029510498,0.3384768068790436,0.3708091378211975
1782941992899327000,5.784326904296875,0.7174855470657349,0.14515335857868195,0.5012966394424438
1782941992909312300,5.794312255859375,0.765825629234314,0.0051508620381355286,0.5665588974952698
1782941992919297300,5.80429736328125,0.8126991391181946,-0.1105847880244255,0.5773037075996399
1782941992929282300,5.8142822265625,0.8603157997131348,-0.21518628299236298,0.5515651702880859
1782941992939267000,5.82426708984375,0.9032251834869385,-0.2919282019138336,0.5222344398498535
1782941992949252000,5.834252197265625,0.964674174785614,-0.35132575035095215,0.486440509557724
1782941992959237000,5.844237060546875,1.0324448347091675,-0.32231831550598145,0.41495275497436523
1782941992969222100,5.85422216796875,1.0679072141647339,-0.15504799783229828,0.2710856795310974
1782941992979207000,5.86420703125,1.0458247661590576,0.11199328303337097,0.09194786846637726
1782941992989193200,5.874193115234375,0.9858304858207703,0.3850996792316437,-0.15032218396663666
1782941992999178200,5.88417822265625,0.8705108165740967,0.6081750988960266,-0.484078586101532
1782941993009163300,5.894163330078125,0.7135578393936157,0.8157360553741455,-0.8882604837417603
1782941993019148000,5.90414794921875,0.5440258979797363,1.039408564567566,-1.2831223011016846
1782941993029133000,5.914133056640625,0.3720299303531647,1.1334731578826904,-1.5894829034805298
1782941993039118000,5.9241181640625,0.21900306642055511,0.9518119692802429,-1.8664798736572266
1782941993049103000,5.93410302734375,0.00022377865388989449,0.49302223324775696,-2.168863296508789
1782941993059088100,5.944088134765625,-0.29003652930259705,-0.004125724546611309,-2.2337486743927
1782941993069073200,5.9540732421875,-0.6550586819648743,-0.5358417630195618,-2.152846574783325
1782941993079059200,5.96405908203125,-1.1458584070205688,-1.125015139579773,-2.1511051654815674
1782941993089044000,5.9740439453125,-1.6216579675674438,-1.6147780418395996,-2.1003715991973877
1782941993099029000,5.984029052734375,-1.9454165697097778,-2.0408945083618164,-1.8652946949005127
1782941993109014000,5.994013916015625,-2.1161623001098633,-2.5911126136779785,-1.382765531539917
1782941993118999300,6.003999267578125,-2.1525073051452637,-3.09024977684021,-0.5555504560470581
1782941993128984300,6.013984375,-2.0219082832336426,-3.5623576641082764,0.4415144622325897
1782941993138969000,6.023968994140625,-1.6549022197723389,-3.786550521850586,1.4912304878234863
1782941993148954000,6.0339541015625,-1.172583818435669,-3.4079596996307373,2.417550802230835
1782941993158939100,6.043939208984375,-0.727483868598938,-2.584690570831299,2.9544565677642822
1782941993168924200,6.053924072265625,-0.3598128855228424,-1.6580791473388672,3.0052363872528076
1782941993178910000,6.063909912109375,-0.19743037223815918,-0.8459838628768921,2.69743275642395
1782941993188895200,6.073895263671875,-0.3035357892513275,-0.44338133931159973,2.2866950035095215
1782941993198880300,6.08388037109375,-0.5638189911842346,-0.4631076455116272,1.9027538299560547
1782941993208865300,6.093865234375,-0.8349377512931824,-0.49348190426826477,1.526743769645691
1782941993218850000,6.10385009765625,-1.0080077648162842,-0.48667192459106445,1.094875693321228
1782941993228835000,6.1138349609375,-1.0874143838882446,-0.2936607003211975,0.5406525135040283
1782941993238820000,6.123820068359375,-1.147068977355957,0.15631446242332458,-0.17352047562599182
1782941993248805000,6.13380517578125,-1.24477219581604,0.8282142877578735,-0.9530552625656128
1782941993258790100,6.1437900390625,-1.344507098197937,1.5777814388275146,-1.711166501045227
1782941993268775200,6.153775146484375,-1.4434740543365479,2.20953106880188,-2.3598642349243164
1782941993278760200,6.16376025390625,-1.5056755542755127,2.5939278602600098,-2.792386531829834
1782941993288746200,6.173746337890625,-1.5181970596313477,2.7325096130371094,-2.9375007152557373
1782941993298731000,6.18373095703125,-1.487693428993225,2.6669187545776367,-2.8061559200286865
1782941993308716000,6.193716064453125,-1.4144282341003418,2.4793620109558105,-2.4329280853271484
1782941993318701000,6.203701171875,-1.3047549724578857,2.218338966369629,-1.9045382738113403
1782941993328686300,6.213686279296875,-1.2024924755096436,1.883253812789917,-1.2987867593765259
1782941993338671000,6.223671142578125,-1.1057674884796143,1.502807378768921,-0.6719772219657898
1782941993348656000,6.23365625,-1.0097949504852295,1.1240413188934326,-0.07094846665859222
1782941993358641200,6.24364111328125,-0.9195185303688049,0.7831305861473083,0.487867146730423
1782941993368626200,6.253626220703125,-0.8407338857650757,0.535944402217865,0.9878189563751221
1782941993378611200,6.263611083984375,-0.775050699710846,0.3813924193382263,1.4261038303375244
1782941993388597200,6.27359716796875,-0.7210693955421448,0.2582741379737854,1.7994412183761597
1782941993398582300,6.283582275390625,-0.6591817736625671,0.12135063111782074,2.097929000854492
1782941993408567300,6.2935673828125,-0.5862618088722229,0.029307812452316284,2.310967206954956
1782941993418552000,6.303552001953125,-0.4607057273387909,-0.03425678238272667,2.43294358253479
1782941993428537000,6.313537109375,-0.2816680371761322,-0.1783088594675064,2.4666905403137207
1782941993438522000,6.323522216796875,-0.08013945072889328,-0.4371790289878845,2.3840138912200928
1782941993448507100,6.333507080078125,0.12600059807300568,-0.7572535276412964,2.199138879776001
1782941993458492200,6.3434921875,0.3028517961502075,-1.033952236175537,1.9545856714248657
1782941993468477200,6.353477294921875,0.4511951804161072,-1.2106167078018188,1.685987949371338
1782941993478462200,6.363462158203125,0.5445206165313721,-1.2637425661087036,1.4460076093673706
1782941993488448300,6.3734482421875,0.5665210485458374,-1.1877622604370117,1.2482527494430542
1782941993498433000,6.38343310546875,0.5536553263664246,-1.0114415884017944,1.1293737888336182
1782941993508418000,6.39341796875,0.5433244705200195,-0.7729130983352661,1.082266926765442
1782941993518403000,6.403403076171875,0.5393337607383728,-0.4967190623283386,1.0542707443237305
1782941993528388000,6.41338818359375,0.5813550353050232,-0.1813506931066513,1.0254789590835571
1782941993538373000,6.423373046875,0.5937603116035461,0.0600464753806591,0.9774767160415649
1782941993548358100,6.433358154296875,0.5206302404403687,0.28696542978286743,0.8858175873756409
1782941993558343200,6.44334326171875,0.41405266523361206,0.5087534785270691,0.7750036716461182
1782941993568328200,6.453328125,0.29712173342704773,0.6355887651443481,0.6479296088218689
1782941993578313200,6.463313232421875,0.1727430820465088,0.6393134593963623,0.5122181177139282
1782941993588299000,6.473299072265625,0.07582167536020279,0.5258944630622864,0.3805120587348938
1782941993598284300,6.4832841796875,0.025689270347356796,0.3993738293647766,0.2188325971364975
1782941993608269300,6.493269287109375,-0.015203913673758507,0.2883732318878174,-0.02738589607179165
1782941993618254000,6.503254150390625,-0.1243855282664299,0.13901598751544952,-0.32022494077682495
1782941993628239000,6.513239013671875,-0.13992269337177277,0.09735379368066788,-0.6354157328605652
1782941993638224100,6.52322412109375,0.13161320984363556,0.4384685158729553,-1.0260987281799316
1782941993648209200,6.533209228515625,1.0879905223846436,1.7683794498443604,-0.9416054487228394
1782941993658194200,6.543194091796875,2.006960868835449,1.5305300951004028,-1.6894429922103882
1782941993668179000,6.553178955078125,2.7066779136657715,1.2892687320709229,-2.179581880569458
1782941993678165200,6.563165283203125,2.1676721572875977,0.6639354228973389,-1.7772470712661743
1782941993688150800,6.57315087890625,0.41936206817626953,-1.0677028894424438,-1.5784450769424438
1782941993698135800,6.5831357421875,-1.9677232503890991,-3.5457632541656494,-2.0578243732452393
1782941993708120800,6.593120849609375,-4.299116611480713,-6.035635948181152,-3.0371391773223877
1782941993718105900,6.60310595703125,-5.9565839767456055,-7.261151313781738,-4.305017948150635
1782941993728091000,6.6130908203125,-6.977092742919922,-6.585958957672119,-5.646442413330078
1782941993738076000,6.623075927734375,-7.586832523345947,-3.2586240768432617,-5.901613712310791
1782941993748061000,6.63306103515625,-7.8001389503479,1.3698267936706543,-5.469801425933838
1782941993758046000,6.6430458984375,-7.157196998596191,1.729407548904419,-4.864393711090088
1782941993768031000,6.653031005859375,-5.417524337768555,0.35878100991249084,-4.417880058288574
1782941993778016800,6.663016845703125,-2.252573013305664,2.197716236114502,-2.9313316345214844
1782941993788001800,6.673001708984375,0.3691563010215759,2.85618257522583,-1.3006457090377808
1782941993797987000,6.682987060546875,1.4860386848449707,3.0484631061553955,0.0913068875670433
1782941993807971800,6.692971923828125,1.5191072225570679,2.961986541748047,1.1029644012451172
1782941993817956900,6.702956787109375,0.9103948473930359,2.7571921348571777,1.578908085823059
1782941993827942000,6.71294189453125,0.2031574696302414,2.2483153343200684,1.6261355876922607
1782941993837927000,6.722927001953125,-0.1810772866010666,1.6212834119796753,1.5467281341552734
1782941993847912000,6.732911865234375,-0.34170329570770264,1.1896090507507324,1.372576117515564
1782941993857896700,6.742896728515625,-0.45527032017707825,1.0462236404418945,1.0403449535369873
1782941993867881700,6.7528818359375,-0.5691350102424622,1.0576043128967285,0.6043041348457336
1782941993877868000,6.762867919921875,-0.611594021320343,1.141945242881775,0.14500579237937927
1782941993887852800,6.772852783203125,-0.5325440168380737,1.2036503553390503,-0.30826640129089355
1782941993897837800,6.782837890625,-0.37367740273475647,1.1611993312835693,-0.7145944833755493
1782941993907822800,6.79282275390625,-0.2442188858985901,0.9041261076927185,-0.9930000901222229
1782941993917807900,6.802807861328125,-0.1922273188829422,0.5041075944900513,-1.0494993925094604
1782941993927793000,6.81279296875,-0.2068813294172287,0.17532432079315186,-0.9351499676704407
1782941993937778000,6.82277783203125,-0.21723224222660065,-0.01938125491142273,-0.7400805950164795
1782941993947763000,6.832762939453125,-0.16297931969165802,-0.09227325022220612,-0.4904387593269348
1782941993957748000,6.842748046875,-0.058307770639657974,-0.08073323965072632,-0.1963765174150467
1782941993967733000,6.85273291015625,0.06442181766033173,-0.17698952555656433,0.08933178335428238
1782941993977718800,6.86271875,0.1628410667181015,-0.45444804430007935,0.32653501629829407
1782941993987703800,6.872703857421875,0.19203627109527588,-0.8157685399055481,0.5098944902420044
1782941993997688800,6.882688720703125,0.12696513533592224,-1.064369559288025,0.6807924509048462
1782941994007673900,6.892673828125,-0.027272306382656097,-1.1394277811050415,0.880507230758667
1782941994017659000,6.902658935546875,-0.2336989790201187,-1.0819733142852783,1.0755037069320679
1782941994027644000,6.912643798828125,-0.4316492974758148,-0.9068282842636108,1.2415006160736084
1782941994037629000,6.92262890625,-0.551662266254425,-0.6316534280776978,1.3520606756210327
1782941994047614000,6.932614013671875,-0.5595989227294922,-0.321753591299057,1.4316622018814087
1782941994057598700,6.9425986328125,-0.4858642518520355,-0.037911757826805115,1.4499943256378174
1782941994067585000,6.9525849609375,-0.38721227645874023,0.18458744883537292,1.3919731378555298
1782941994077570000,6.962570068359375,-0.3071158230304718,0.3070739507675171,1.2482556104660034
1782941994087554800,6.972554931640625,-0.24375629425048828,0.29794034361839294,1.0378133058547974
1782941994097539800,6.982539794921875,-0.1722637265920639,0.1989690214395523,0.7862656712532043
1782941994107524900,6.99252490234375,-0.08130364120006561,0.051992885768413544,0.5482019782066345
1782941994117510000,7.002510009765625,0.035476237535476685,-0.10394372045993805,0.34958794713020325
1782941994127495000,7.012494873046875,0.1604713350534439,-0.250431090593338,0.19993247091770172
1782941994137479700,7.022479736328125,0.2624581456184387,-0.3493662178516388,0.09464838355779648
1782941994147465000,7.03246484375,0.29754942655563354,-0.36352965235710144,0.014795325696468353
1782941994157450000,7.042449951171875,0.2407548874616623,-0.33802640438079834,-0.053857773542404175
1782941994167435800,7.052435791015625,0.11856911331415176,-0.32159435749053955,-0.13057838380336761
1782941994177420800,7.0624208984375,-0.016268331557512283,-0.2652040421962738,-0.21935006976127625
1782941994187405800,7.07240576171875,-0.12184040248394012,-0.14813092350959778,-0.31732743978500366
1782941994197390800,7.082390869140625,-0.20151951909065247,-0.016400055959820747,-0.41536691784858704
1782941994207376000,7.0923759765625,-0.25102654099464417,0.09967218339443207,-0.505901575088501
1782941994217361000,7.10236083984375,-0.28215673565864563,0.17863571643829346,-0.5742233395576477
1782941994227346000,7.112345947265625,-0.29673391580581665,0.24105381965637207,-0.599895179271698
1782941994237331000,7.1223310546875,-0.32100382447242737,0.28541913628578186,-0.5663260221481323
1782941994247316000,7.13231591796875,-0.36153221130371094,0.3385389745235443,-0.4987337589263916
1782941994257300700,7.14230078125,-0.41599225997924805,0.39587175846099854,-0.4330780506134033
1782941994267286800,7.152286865234375,-0.4687770903110504,0.41872698068618774,-0.3925653100013733
1782941994277272000,7.16227197265625,-0.5246424674987793,0.35101932287216187,-0.37014684081077576
1782941994287256800,7.1722568359375,-0.5872598886489868,0.23541897535324097,-0.35152310132980347
1782941994297241900,7.182241943359375,-0.6569198966026306,0.13718827068805695,-0.3258281350135803
1782941994307227000,7.192226806640625,-0.6889286637306213,0.10115926712751389,-0.3114856779575348
1782941994317212000,7.2022119140625,-0.6694492101669312,0.08105240017175674,-0.3040677011013031
1782941994327197000,7.212197021484375,-0.6010883450508118,0.06599202752113342,-0.2933126389980316
1782941994337181700,7.222181640625,-0.5059103965759277,0.08741369843482971,-0.2807862162590027
1782941994347166700,7.232166748046875,-0.4218701422214508,0.16279780864715576,-0.2702629268169403
1782941994357153000,7.242153076171875,-0.37570852041244507,0.2670288681983948,-0.281040757894516
1782941994367137800,7.2521376953125,-0.3680540919303894,0.3171778917312622,-0.3180098533630371
1782941994377122800,7.262122802734375,-0.38644081354141235,0.27518942952156067,-0.38078001141548157
1782941994387107800,7.27210791015625,-0.41465839743614197,0.20311491191387177,-0.44429972767829895
1782941994397092900,7.2820927734375,-0.44307219982147217,0.11894170939922333,-0.4730648100376129
1782941994407078000,7.292077880859375,-0.4806874096393585,0.06922371685504913,-0.42374926805496216
1782941994417063000,7.30206298828125,-0.5242136120796204,0.07864491641521454,-0.32225993275642395
1782941994427048000,7.3120478515625,-0.5663714408874512,0.0813441351056099,-0.20321865379810333
1782941994437033000,7.322032958984375,-0.5805906057357788,0.045483075082302094,-0.08628750592470169
1782941994447018000,7.33201806640625,-0.5513824820518494,-0.0353393591940403,0.008131826296448708
1782941994457003800,7.342003662109375,-0.49446672201156616,-0.15457333624362946,0.08542368561029434
1782941994466988800,7.35198876953125,-0.47437599301338196,-0.27859094738960266,0.15242105722427368
1782941994476973800,7.361973876953125,-0.517827033996582,-0.35457226634025574,0.21997426450252533
1782941994486959000,7.371958984375,-0.5959106087684631,-0.3195686340332031,0.273397296667099
1782941994496943900,7.38194384765625,-0.6708825826644897,-0.2404906004667282,0.2863093614578247
1782941994506929000,7.391928955078125,-0.681284487247467,-0.17616160213947296,0.2254706621170044
1782941994516914000,7.401913818359375,-0.5853531360626221,-0.18174996972084045,0.08247809112071991
1782941994526899000,7.41189892578125,-0.4398568272590637,-0.24387069046497345,-0.07621371746063232
1782941994536883700,7.4218837890625,-0.30530649423599243,-0.34336531162261963,-0.22867462038993835
1782941994546868700,7.43186865234375,-0.2409684956073761,-0.38126319646835327,-0.34978288412094116
1782941994556855000,7.44185498046875,-0.24086755514144897,-0.3233706057071686,-0.45140671730041504
1782941994566839800,7.45183984375,-0.26933857798576355,-0.25214555859565735,-0.532938539981842
1782941994576824800,7.461824951171875,-0.2634492516517639,-0.18050545454025269,-0.5991505980491638
1782941994586809900,7.471809814453125,-0.21354708075523376,-0.10597116500139236,-0.6488584876060486
1782941994596795000,7.481794921875,-0.1396544724702835,-0.04677015542984009,-0.6707009077072144
1782941994606780000,7.49177978515625,-0.07804746925830841,-0.016381941735744476,-0.6653812527656555
1782941994616764700,7.5017646484375,-0.06520703434944153,-0.00475990679115057,-0.6348928213119507
1782941994626750000,7.51175,-0.10287246108055115,-0.0019212998449802399,-0.5927063226699829
1782941994636735000,7.52173486328125,-0.14887244999408722,-0.06778446584939957,-0.5508787631988525
1782941994646720800,7.531720703125,-0.17148277163505554,-0.15450793504714966,-0.49482008814811707
1782941994656705800,7.541705810546875,-0.16673888266086578,-0.2739903926849365,-0.41913971304893494
1782941994666690800,7.55169091796875,-0.15268222987651825,-0.35082560777664185,-0.315928190946579
1782941994676675800,7.56167578125,-0.15428732335567474,-0.2966803312301636,-0.2022370547056198
1782941994686660000,7.57166015625,-0.1764812022447586,-0.19078166782855988,-0.09121409058570862
1782941994696645000,7.58164501953125,-0.21107779443264008,-0.07552537322044373,0.0005595069378614426
1782941994706630100,7.591630126953125,-0.24717795848846436,0.009801366366446018,0.08122074604034424
1782941994716615200,7.601615234375,-0.27820831537246704,0.03800211474299431,0.1518206149339676
1782941994726600200,7.61160009765625,-0.2952668070793152,-0.03470282629132271,0.20661024749279022
1782941994736585200,7.621585205078125,-0.28879719972610474,-0.12835288047790527,0.2764556109905243
1782941994746571000,7.631571044921875,-0.2659815549850464,-0.1324886679649353,0.37372422218322754
1782941994756556000,7.64155615234375,-0.22922062873840332,-0.05323592573404312,0.46797242760658264
1782941994766541300,7.651541259765625,-0.19298915565013885,0.06759048253297806,0.5317114591598511
1782941994776526300,7.6615263671875,-0.1423097401857376,0.1738559454679489,0.5436021685600281
1782941994786511000,7.671510986328125,-0.05624105781316757,0.2920919954776764,0.4894861578941345
1782941994796496100,7.68149609375,0.04575987160205841,0.40538740158081055,0.37669435143470764
1782941994806481200,7.691481201171875,0.131199449300766,0.48674100637435913,0.23120203614234924
1782941994816466200,7.701466064453125,0.20783910155296326,0.5669543147087097,0.08190443366765976
1782941994826451000,7.711450927734375,0.28443416953086853,0.6875284314155579,-0.06883969902992249
1782941994836437200,7.721437255859375,0.3613433241844177,0.8326001763343811,-0.20869854092597961
1782941994846422300,7.73142236328125,0.4495142102241516,0.8864558935165405,-0.31902050971984863
1782941994856407000,7.741406982421875,0.5395210385322571,0.8379570841789246,-0.3353017568588257
1782941994866392000,7.75139208984375,0.4401176869869232,0.9055408835411072,0.09582635760307312
1782941994876377000,7.761377197265625,0.16004742681980133,0.49954837560653687,0.47430363297462463
1782941994886362000,7.771362060546875,-0.13692885637283325,0.2704150378704071,0.7505603432655334
1782941994896347100,7.78134716796875,-0.28531697392463684,0.051922645419836044,0.8216667175292969
1782941994906332000,7.791331787109375,-0.38860541582107544,-0.3081648349761963,0.781024158000946
1782941994916317200,7.801317138671875,-0.48530399799346924,-0.6354287266731262,0.688459575176239
