time,seconds_elapsed,z,y,x
1782942007722538800,0.079538818359375,0.00992836244404316,0.008321601897478104,0.12244247645139694
1782942007732523800,0.089523681640625,0.03829111531376839,0.025271236896514893,0.13278363645076752
1782942007742508500,0.099508544921875,0.06816273182630539,0.04669690132141113,0.11619479209184647
1782942007752493600,0.10949365234375,0.09368863701820374,0.06563958525657654,0.0865466520190239
1782942007762478600,0.119478515625,0.10595542192459106,0.09675436466932297,0.06095820292830467
1782942007772464600,0.129464599609375,0.1179533377289772,0.13179172575473785,0.04307904839515686
1782942007782449700,0.13944970703125,0.13008828461170197,0.13311956822872162,0.020291443914175034
1782942007792434700,0.1494345703125,0.13799963891506195,0.11276398599147797,-0.007391614839434624
1782942007802419700,0.159419677734375,0.14400319755077362,0.09480522572994232,-0.024021722376346588
1782942007812404700,0.16940478515625,0.14810426533222198,0.09086543321609497,-0.024051276966929436
1782942007822389500,0.179389404296875,0.14872664213180542,0.09931990504264832,-0.023989228531718254
1782942007832374500,0.18937451171875,0.14859658479690552,0.10335297882556915,-0.023486271500587463
1782942007842359600,0.199359619140625,0.15053243935108185,0.13265281915664673,-0.004115503281354904
1782942007852344600,0.209344482421875,0.16398769617080688,0.1720692217350006,0.02753426693379879
1782942007862329600,0.21932958984375,0.1861124336719513,0.19628854095935822,0.061571333557367325
1782942007872314600,0.229314697265625,0.20931947231292725,0.17226211726665497,0.08600359410047531
1782942007882299600,0.239299560546875,0.22904790937900543,0.12214087694883347,0.1055338904261589
1782942007892285700,0.24928564453125,0.2471725344657898,0.058279190212488174,0.11774484813213348
1782942007902270500,0.2592705078125,0.25644809007644653,-0.013323890045285225,0.10676224529743195
1782942007912255500,0.26925537109375,0.24887701869010925,-0.09107320010662079,0.07586957514286041
1782942007922240500,0.279240478515625,0.23156993091106415,-0.1537403017282486,0.009980840608477592
1782942007932225800,0.289225830078125,0.20650659501552582,-0.19650836288928986,-0.0727555900812149
1782942007942210600,0.29921044921875,0.18858592212200165,-0.2071727216243744,-0.13404105603694916
1782942007952195600,0.309195556640625,0.16415587067604065,-0.15766403079032898,-0.16982100903987885
1782942007962180600,0.3191806640625,0.1595832258462906,-0.07262317836284637,-0.17875005304813385
1782942007972165600,0.32916552734375,0.17108894884586334,0.0281527116894722,-0.16847172379493713
1782942007982150700,0.339150634765625,0.2038642168045044,0.11946079134941101,-0.1518820971250534
1782942007992135400,0.349135498046875,0.2535284459590912,0.1914350390434265,-0.13726256787776947
1782942008002120400,0.359120361328125,0.3058640956878662,0.22564680874347687,-0.13672806322574615
1782942008012106800,0.369106689453125,0.3470741808414459,0.2096930742263794,-0.14796823263168335
1782942008022091500,0.379091552734375,0.3692188858985901,0.12929463386535645,-0.17259874939918518
1782942008032076500,0.38907666015625,0.3718608021736145,0.03392105549573898,-0.19277778267860413
1782942008042061600,0.3990615234375,0.34417590498924255,-0.060175344347953796,-0.20121599733829498
1782942008052046600,0.409046630859375,0.2974165380001068,-0.15548954904079437,-0.19609589874744415
1782942008062031600,0.419031494140625,0.23339040577411652,-0.24110405147075653,-0.18421366810798645
1782942008072016600,0.4290166015625,0.1615249663591385,-0.29202356934547424,-0.15534815192222595
1782942008082001700,0.439001708984375,0.09129342436790466,-0.28699204325675964,-0.11216713488101959
1782942008091986700,0.448986572265625,0.035741329193115234,-0.23689165711402893,-0.07269872725009918
1782942008101971700,0.4589716796875,0.004427614156156778,-0.16902844607830048,-0.05126401409506798
1782942008111956500,0.46895654296875,0.002481025643646717,-0.11514049768447876,-0.053633615374565125
1782942008121942500,0.478942626953125,0.019708216190338135,-0.08671072125434875,-0.07783190160989761
1782942008131927600,0.488927490234375,0.04599422216415405,-0.050086844712495804,-0.11841274797916412
1782942008141912600,0.49891259765625,0.07203380763530731,-0.01943785697221756,-0.1614888459444046
1782942008151897600,0.508897705078125,0.09361371397972107,-0.006999175995588303,-0.19904905557632446
1782942008161882600,0.518882568359375,0.10335156321525574,-0.024273771792650223,-0.21799610555171967
1782942008171867600,0.52886767578125,0.0891786441206932,-0.04895797744393349,-0.22357384860515594
1782942008181852700,0.538852783203125,0.05709607154130936,-0.06651273369789124,-0.22070854902267456
1782942008191837400,0.54883740234375,0.00883944146335125,-0.07156938314437866,-0.22385373711585999
1782942008201822500,0.558822509765625,-0.028564123436808586,-0.06963539123535156,-0.22058284282684326
1782942008211807500,0.568807373046875,-0.040171340107917786,-0.08142548054456711,-0.20409731566905975
1782942008221792800,0.578792724609375,-0.008680259808897972,-0.12297771871089935,-0.17643746733665466
1782942008231777800,0.58877783203125,0.0665144994854927,-0.19595272839069366,-0.14343297481536865
1782942008241763600,0.598763671875,0.1645108461380005,-0.3257831633090973,-0.10905501991510391
1782942008251748600,0.60874853515625,0.25262564420700073,-0.5088632702827454,-0.07322908192873001
1782942008261733600,0.618733642578125,0.3100207448005676,-0.6765523552894592,-0.041792597621679306
1782942008271718400,0.628718505859375,0.34172409772872925,-0.735564112663269,-0.013294322416186333
1782942008281703700,0.63870361328125,0.36755168437957764,-0.637995183467865,-0.0072247120551764965
1782942008291688700,0.648688720703125,0.4058782160282135,-0.4410552978515625,-0.05760412663221359
1782942008301673700,0.658673828125,0.4702518880367279,-0.2699623703956604,-0.16149191558361053
1782942008311658500,0.668658447265625,0.5673111081123352,-0.18802547454833984,-0.2819063067436218
1782942008321643500,0.6786435546875,0.6943928599357605,-0.19765758514404297,-0.38942795991897583
1782942008331628500,0.688628662109375,0.8320766091346741,-0.23599494993686676,-0.4620935022830963
1782942008341613600,0.698613525390625,0.9593024849891663,-0.2507810890674591,-0.5101803541183472
1782942008351598600,0.7085986328125,1.0853681564331055,-0.26067450642585754,-0.5487474799156189
1782942008361584600,0.718584716796875,1.1987274885177612,-0.31718066334724426,-0.6195191144943237
1782942008371569700,0.728569580078125,1.2774345874786377,-0.4263799786567688,-0.7262744307518005
1782942008381554700,0.7385546875,1.3055291175842285,-0.5435670614242554,-0.8278825879096985
1782942008391539500,0.74853955078125,1.303001046180725,-0.5492225885391235,-0.8988921046257019
1782942008401524500,0.7585244140625,1.288224458694458,-0.4700859487056732,-0.962462842464447
1782942008411509500,0.768509521484375,1.2850465774536133,-0.33071672916412354,-1.0679092407226562
1782942008421494800,0.778494873046875,1.3042793273925781,-0.22030074894428253,-1.254254698753357
1782942008431479800,0.788479736328125,1.3527050018310547,-0.26631468534469604,-1.530861735343933
1782942008441464600,0.798464599609375,1.4208654165267944,-0.461772620677948,-1.8214930295944214
1782942008451449600,0.80844970703125,1.4962382316589355,-0.6555011868476868,-2.0413825511932373
1782942008461434600,0.8184345703125,1.5349619388580322,-0.7878400087356567,-2.1478357315063477
1782942008471419600,0.828419677734375,1.4948748350143433,-0.8298395872116089,-2.1566803455352783
1782942008481405400,0.838405517578125,1.331717610359192,-0.7740128040313721,-2.1316349506378174
1782942008491390700,0.848390625,1.0297719240188599,-0.6088337302207947,-2.1256189346313477
1782942008501375700,0.858375732421875,0.6249149441719055,-0.37066322565078735,-2.167454719543457
1782942008511360800,0.86836083984375,0.18042229115962982,-0.0867781713604927,-2.2527878284454346
1782942008521345500,0.878345458984375,-0.22479790449142456,0.1522112339735031,-2.334594249725342
1782942008531330600,0.88833056640625,-0.5526803135871887,0.3380574882030487,-2.3762078285217285
1782942008541315600,0.898315673828125,-0.7921640276908875,0.45238804817199707,-2.4015345573425293
1782942008551300600,0.908300537109375,-0.9357201457023621,0.5175862908363342,-2.435809850692749
1782942008561285400,0.918285400390625,-1.0141212940216064,0.5755529403686523,-2.519169569015503
1782942008571270700,0.928270751953125,-1.0449292659759521,0.7065832614898682,-2.629302501678467
1782942008581255700,0.938255615234375,-0.8412805199623108,0.7314675450325012,-2.744316816329956
1782942008591240700,0.94824072265625,-0.7183566093444824,0.6071480512619019,-2.782897710800171
1782942008601226500,0.9582265625,-0.6102319955825806,0.46763038635253906,-2.731454849243164
1782942008611211500,0.96821142578125,-0.520293653011322,0.3457278907299042,-2.4498441219329834
1782942008621196500,0.978196533203125,-0.42630907893180847,0.22696873545646667,-2.0072672367095947
1782942008631181800,0.988181884765625,-0.2965729832649231,0.07245634496212006,-1.4785279035568237
1782942008641166600,0.99816650390625,-0.13603949546813965,-0.10254130512475967,-0.9673957228660583
1782942008651151600,1.008151611328125,0.010862389579415321,-0.19895561039447784,-0.5847852230072021
1782942008661136600,1.01813671875,0.0996340736746788,-0.19032244384288788,-0.3959266245365143
1782942008671121700,1.02812158203125,0.12279274314641953,-0.03215378150343895,-0.39021050930023193
1782942008681106700,1.038106689453125,0.09369797259569168,0.29871150851249695,-0.46987098455429077
1782942008691091500,1.048091552734375,0.027905169874429703,0.7184349894523621,-0.5157748460769653
1782942008701076500,1.058076416015625,-0.037131085991859436,1.107482671737671,-0.46139439940452576
1782942008711058200,1.06805810546875,-0.04870598018169403,1.3813107013702393,-0.2803066372871399
1782942008721043500,1.07804345703125,0.02002035081386566,1.5773260593414307,0.014876789413392544
1782942008731028200,1.0880283203125,0.16867293417453766,1.6936625242233276,0.38977929949760437
1782942008741013200,1.09801318359375,0.37222954630851746,1.687198519706726,0.759615957736969
1782942008750998300,1.107998291015625,0.5744665265083313,1.5736596584320068,1.0343824625015259
1782942008760983300,1.1179833984375,0.7606902122497559,1.482748031616211,1.1803241968154907
1782942008770968300,1.12796826171875,0.9309383630752563,1.3864003419876099,1.2376025915145874
1782942008780953000,1.137953125,1.0821644067764282,1.3675880432128906,1.2924247980117798
1782942008790938000,1.147938232421875,1.2177181243896484,1.3920001983642578,1.4317785501480103
1782942008800923400,1.15792333984375,1.377492070198059,1.4415847063064575,1.7150449752807617
1782942008810908400,1.167908447265625,1.5894474983215332,1.5029584169387817,2.123166799545288
1782942008820893200,1.17789306640625,1.8443365097045898,1.29393470287323,2.588937282562256
1782942008830879200,1.187879150390625,2.1361820697784424,0.7246823310852051,3.040250301361084
1782942008840864300,1.1978642578125,2.441929817199707,-0.04451398551464081,3.4369568824768066
1782942008850849000,1.20784912109375,2.7282891273498535,-0.6396304368972778,3.669881582260132
1782942008860834000,1.217833984375,2.924818515777588,-1.0536390542984009,3.591586112976074
1782942008870819300,1.2278193359375,3.006040573120117,-1.3666574954986572,3.346522569656372
1782942008880804400,1.237804443359375,2.9330039024353027,-1.3084099292755127,3.3630013465881348
1782942008890789400,1.247789306640625,2.6840929985046387,-0.911155641078949,3.7277615070343018
1782942008900774100,1.257774169921875,2.385385751724243,-0.6240743398666382,4.079617023468018
1782942008910759200,1.26775927734375,2.2530527114868164,-0.6476044058799744,4.032629489898682
1782942008920744200,1.277744140625,2.2639553546905518,-0.8316283226013184,3.588787317276001
1782942008930729200,1.287729248046875,2.257741928100586,-1.2352288961410522,3.118879556655884
1782942008940714200,1.29771435546875,2.2418458461761475,-1.8526415824890137,2.8708431720733643
1782942008950700300,1.3077001953125,2.284679651260376,-2.2147061824798584,3.0466489791870117
1782942008960685300,1.317685302734375,2.4735991954803467,-1.9984710216522217,4.007589817047119
1782942008970670300,1.32767041015625,2.9675657749176025,-1.1331967115402222,5.405604362487793
1782942008980655000,1.337655029296875,3.647378444671631,-0.09743339568376541,6.419976234436035
1782942008990640000,1.34764013671875,4.11149787902832,0.4401160776615143,6.645456314086914
1782942009000625200,1.357625244140625,4.110236644744873,0.5751575231552124,6.092421531677246
1782942009010610400,1.3676103515625,3.6588258743286133,0.8323389887809753,4.951834201812744
1782942009020595200,1.37759521484375,2.9896271228790283,1.3878909349441528,3.61384916305542
1782942009030580200,1.387580322265625,2.401609420776367,1.5469603538513184,2.2635657787323
1782942009040565200,1.397565185546875,1.6915857791900635,1.3996001482009888,1.034514307975769
1782942009050550300,1.40755029296875,1.0241625308990479,1.0068702697753906,0.024120396003127098
1782942009060536000,1.4175361328125,0.5847079157829285,0.5098941326141357,-0.7996475696563721
1782942009070521000,1.42752099609375,0.3455212414264679,-0.1389397233724594,-1.203508973121643
1782942009080506400,1.43750634765625,0.23642992973327637,-0.9820296764373779,-1.2192248106002808
1782942009090491400,1.447491455078125,0.13278621435165405,-1.8814501762390137,-0.8906151652336121
1782942009100476200,1.45747607421875,-0.04649192467331886,-2.693957567214966,-0.39087674021720886
1782942009110461200,1.467461181640625,-0.28592416644096375,-3.325462579727173,0.05929245054721832
1782942009120446200,1.4774462890625,-0.5817878246307373,-3.7930197715759277,0.25047627091407776
1782942009130431200,1.48743115234375,-0.931220293045044,-3.9727392196655273,0.10252048075199127
1782942009140416300,1.497416259765625,-1.2772634029388428,-3.6902213096618652,-0.2938598692417145
1782942009150401000,1.507401123046875,-1.591625690460205,-2.9174795150756836,-0.7282149791717529
1782942009160386300,1.51738623046875,-1.9059187173843384,-1.8433936834335327,-1.0767067670822144
1782942009170372400,1.527372314453125,-2.201180934906006,-0.7653441429138184,-1.2959867715835571
1782942009180357000,1.537357177734375,-2.4643149375915527,0.20627179741859436,-1.4306143522262573
1782942009190342100,1.547342041015625,-2.6152873039245605,1.1038501262664795,-1.5264534950256348
1782942009200327200,1.5573271484375,-2.6653449535369873,1.8484045267105103,-1.599521279335022
1782942009210312200,1.567312255859375,-2.6100614070892334,2.328989267349243,-1.6053546667099
1782942009220297200,1.577297119140625,-2.485078811645508,2.4602928161621094,-1.6009063720703125
1782942009230282200,1.5872822265625,-2.3285980224609375,2.2989470958709717,-1.6636639833450317
1782942009240267300,1.597267333984375,-2.1698410511016846,1.9099657535552979,-1.7831631898880005
1782942009250252300,1.607252197265625,-2.001941442489624,1.3522015810012817,-1.884097695350647
1782942009260237300,1.6172373046875,-1.8388210535049438,0.6537582874298096,-1.8961213827133179
1782942009270222000,1.62722216796875,-1.689610481262207,-0.04948079213500023,-1.8048611879348755
1782942009280207000,1.63720703125,-1.5167231559753418,-0.6059136390686035,-1.6379848718643188
1782942009290193400,1.647193359375,-1.291128158569336,-1.0310359001159668,-1.429220199584961
1782942009300178200,1.65717822265625,-1.0182254314422607,-1.358518123626709,-1.2473310232162476
1782942009310163200,1.6671630859375,-0.6942811608314514,-1.5744361877441406,-1.1068881750106812
1782942009320148200,1.677148193359375,-0.34255027770996094,-1.699918508529663,-0.9915831089019775
1782942009330133200,1.68713330078125,0.00943048670887947,-1.7580974102020264,-0.8608496785163879
1782942009340118300,1.6971181640625,0.3438398838043213,-1.7486735582351685,-0.7098072171211243
1782942009350103000,1.70710302734375,0.6332768201828003,-1.6926078796386719,-0.5479175448417664
1782942009360088300,1.71708837890625,0.8638969659805298,-1.5929374694824219,-0.4235308766365051
1782942009370073300,1.7270732421875,1.020214557647705,-1.4566032886505127,-0.34756308794021606
1782942009380058400,1.737058349609375,1.1214052438735962,-1.2630572319030762,-0.3305968940258026
1782942009390043100,1.747043212890625,1.179738998413086,-1.0400491952896118,-0.36713072657585144
1782942009400028200,1.757028076171875,1.2169610261917114,-0.8370869159698486,-0.4280148446559906
1782942009410014200,1.76701416015625,1.241980791091919,-0.6797022819519043,-0.47985538840293884
1782942009419999200,1.776999267578125,1.2561429738998413,-0.5506353974342346,-0.48385944962501526
1782942009429984300,1.786984375,1.2406748533248901,-0.4453235864639282,-0.4399496912956238
1782942009439969300,1.79696923828125,1.19721257686615,-0.410889208316803,-0.35264086723327637
1782942009449954300,1.806954345703125,1.1213427782058716,-0.4392566978931427,-0.2688280940055847
1782942009459939300,1.816939208984375,1.0067429542541504,-0.48724257946014404,-0.2237122803926468
1782942009469924000,1.826924072265625,0.8527788519859314,-0.5051372051239014,-0.23754693567752838
1782942009479909000,1.8369091796875,0.6535925269126892,-0.5047438740730286,-0.2983175814151764
1782942009489894100,1.84689404296875,0.4128255844116211,-0.4702266752719879,-0.34623104333877563
1782942009499879200,1.856879150390625,0.1255863457918167,-0.4023922383785248,-0.37552741169929504
1782942009509864400,1.866864501953125,-0.22464212775230408,-0.291764497756958,-0.3672404885292053
1782942009519850200,1.876850341796875,-0.5499243140220642,-0.034082092344760895,-0.26719269156455994
1782942009529835300,1.886835205078125,-0.6677544116973877,0.5310818552970886,-0.04556690901517868
1782942009539820300,1.8968203125,-0.49883967638015747,1.4409805536270142,0.10732144117355347
1782942009549805000,1.90680517578125,-0.21029087901115417,2.3253281116485596,-0.11517516523599625
1782942009559790000,1.9167900390625,-0.06218183785676956,2.7389919757843018,-0.8136509656906128
1782942009569775400,1.926775390625,-0.28753772377967834,2.4680240154266357,-1.7316077947616577
1782942009579760400,1.936760498046875,-0.9566013216972351,1.6890273094177246,-2.5208067893981934
1782942009589745400,1.946745361328125,-1.9058136940002441,0.10478833317756653,-3.1295318603515625
1782942009599730200,1.956730224609375,-2.669934034347534,-1.756631851196289,-3.3552818298339844
1782942009609715200,1.966715087890625,-2.9092116355895996,-2.591402053833008,-2.9537885189056396
1782942009619700200,1.9767001953125,-2.720914602279663,-1.8465920686721802,-2.057695150375366
1782942009629686000,1.98668603515625,-2.2344918251037598,-0.030420340597629547,-1.1933139562606812
1782942009639671300,1.99667138671875,-1.4071342945098877,1.8754786252975464,-0.5983731150627136
1782942009649656300,2.00665625,-0.36467358469963074,3.2742505073547363,0.036563169211149216
1782942009659641300,2.016641357421875,0.5592401027679443,3.8858718872070312,0.8304839730262756
1782942009669626000,2.026626220703125,1.1651983261108398,3.9364898204803467,1.6182405948638916
1782942009679611100,2.036611083984375,1.455019235610962,3.5917575359344482,2.2168450355529785
1782942009689596200,2.04659619140625,1.480804681777954,3.069389581680298,2.43792462348938
1782942009699581200,2.056581298828125,1.32435941696167,2.4333202838897705,2.234368085861206
1782942009709566700,2.066566650390625,1.1013087034225464,1.8394110202789307,1.7357797622680664
1782942009719551700,2.0765517578125,0.9109035730361938,1.378376841545105,1.1516380310058594
1782942009729536800,2.086536865234375,0.7649505138397217,1.0160459280014038,0.6301268935203552
1782942009739521800,2.096521728515625,0.697460412979126,0.6925573348999023,0.26652657985687256
1782942009749507600,2.106507568359375,0.700376033782959,0.3995687663555145,0.037715423852205276
1782942009759492600,2.11649267578125,0.7472566962242126,0.11353328078985214,-0.034392062574625015
1782942009769478000,2.126477783203125,0.7520838379859924,-0.162140354514122,0.05273707956075668
1782942009779463000,2.136462890625,0.7123894095420837,-0.4475891590118408,0.24162657558918
1782942009789447700,2.14644775390625,0.6710864305496216,-0.7094031572341919,0.4454682469367981
1782942009799432700,2.1564326171875,0.6388936042785645,-0.8346098065376282,0.6259298920631409
1782942009809417700,2.166417724609375,0.557216465473175,-0.8156341314315796,0.7210257053375244
1782942009819402800,2.17640283203125,0.3765367269515991,-0.6183212995529175,0.6660929322242737
1782942009829387800,2.1863876953125,0.12065237760543823,-0.1971931755542755,0.42660367488861084
1782942009839372500,2.19637255859375,-0.17348018288612366,0.3540947437286377,0.01338173821568489
1782942009849357800,2.20635791015625,-0.4836573898792267,0.8677483797073364,-0.47096550464630127
1782942009859344000,2.21634375,-0.7819795608520508,1.2681621313095093,-0.9119687080383301
1782942009869328600,2.22632861328125,-1.062361240386963,1.407702922821045,-1.2390433549880981
1782942009879313700,2.236313720703125,-1.3129055500030518,1.2843266725540161,-1.426612138748169
1782942009889298700,2.246298583984375,-1.5208410024642944,0.9930994510650635,-1.4398545026779175
1782942009899283700,2.25628369140625,-1.6216299533843994,0.6707920432090759,-1.3117409944534302
1782942009909268700,2.266268798828125,-1.5810450315475464,0.3433820903301239,-1.0623893737792969
1782942009919253800,2.276253662109375,-1.4250037670135498,0.0838509202003479,-0.7265677452087402
1782942009929238800,2.28623876953125,-1.1971334218978882,-0.13007161021232605,-0.3764581084251404
1782942009939223800,2.296223876953125,-0.9238555431365967,-0.356950581073761,-0.09814445674419403
1782942009949208800,2.306208740234375,-0.6343751549720764,-0.5467785000801086,0.0552922748029232
1782942009959193600,2.316193603515625,-0.3559080958366394,-0.713589072227478,0.09972897917032242
1782942009969179600,2.3261796875,-0.09774278849363327,-0.8752686977386475,0.07446117699146271
1782942009979165000,2.3361650390625,0.14360271394252777,-1.0310548543930054,0.01413525640964508
1782942009989149700,2.346149658203125,0.3424755334854126,-1.1805474758148193,-0.034729041159152985
1782942009999134700,2.356134765625,0.5081886053085327,-1.3231967687606812,-0.06630641222000122
1782942010009119700,2.36611962890625,0.630458652973175,-1.4695769548416138,-0.0633033961057663
1782942010019104800,2.376104736328125,0.7103905081748962,-1.6086698770523071,-0.02812490426003933
1782942010029089800,2.38608984375,0.7317216992378235,-1.678233027458191,0.011602733284235
1782942010039074600,2.396074462890625,0.6790878176689148,-1.677856206893921,0.014050977304577827
1782942010049059600,2.4060595703125,0.528216540813446,-1.5850595235824585,-0.03780904784798622
1782942010059044900,2.416044921875,0.29786646366119385,-1.3932133913040161,-0.15237396955490112
1782942010069030000,2.42602978515625,0.008098443038761616,-1.1967660188674927,-0.3616364002227783
1782942010079014700,2.4360146484375,-0.31717631220817566,-1.0452574491500854,-0.6417673826217651
1782942010089000700,2.446000732421875,-0.6846352815628052,-0.9201807379722595,-0.9217396378517151
1782942010098985700,2.45598583984375,-1.0502593517303467,-0.6942810416221619,-1.1326769590377808
1782942010108970800,2.465970703125,-1.420647144317627,-0.24598994851112366,-1.2914162874221802
1782942010118955500,2.47595556640625,-1.8835777044296265,0.13453635573387146,-1.480867624282837
1782942010128940800,2.48594091796875,-2.3660006523132324,-0.12427617609500885,-1.8664591312408447
1782942010138925800,2.49592578125,-2.445866584777832,-1.3105570077896118,-2.509054183959961
1782942010148910800,2.505910888671875,-1.7968634366989136,-2.66686749458313,-3.205781936645508
1782942010158895600,2.5158955078125,-0.6906558275222778,-3.7595646381378174,-3.253249406814575
1782942010168880600,2.525880615234375,0.29747524857521057,-3.8329622745513916,-1.7923814058303833
1782942010178865700,2.53586572265625,0.8559473156929016,-1.8853576183319092,0.9000556468963623
1782942010188851700,2.545851806640625,0.9891854524612427,1.5627996921539307,3.5413036346435547
1782942010198836700,2.555836669921875,0.8131888508796692,4.665463924407959,4.968499183654785
1782942010208821800,2.56582177734375,0.46034568548202515,6.368582248687744,5.025496006011963
1782942010218806800,2.575806884765625,0.12567661702632904,6.7014617919921875,4.349945068359375
1782942010228791800,2.585791748046875,-0.004885452333837748,5.934854984283447,3.659135341644287
1782942010238776600,2.595776611328125,0.13361623883247375,4.781709671020508,3.1805174350738525
1782942010248761600,2.60576171875,0.56541508436203,3.609633207321167,2.867215394973755
1782942010258746600,2.61574658203125,1.1698838472366333,2.520589828491211,2.692026138305664
1782942010268732000,2.62573193359375,1.7743635177612305,1.4917316436767578,2.5985469818115234
1782942010278717000,2.635717041015625,2.244408130645752,0.4671012759208679,2.4730072021484375
1782942010288702700,2.64570263671875,2.435399293899536,-0.4314875602722168,2.335566997528076
1782942010298687700,2.655687744140625,2.3479812145233154,-1.2338886260986328,2.2103402614593506
1782942010308672800,2.6656728515625,1.8977395296096802,-1.8587437868118286,2.023224115371704
1782942010318657500,2.675657470703125,1.1504451036453247,-2.374391555786133,1.6414008140563965
1782942010328642800,2.685642822265625,0.2872493267059326,-2.734046459197998,1.052555799484253
1782942010338627800,2.6956279296875,-0.5641680359840393,-2.675983428955078,0.4434764087200165
1782942010348612900,2.70561279296875,-1.3386356830596924,-2.3017234802246094,-0.06140173226594925
1782942010358597600,2.71559765625,-2.0023353099823,-1.737104892730713,-0.43078190088272095
1782942010368582700,2.725582763671875,-2.4911513328552246,-1.0712306499481201,-0.6898826956748962
1782942010378567700,2.735567626953125,-2.7749063968658447,-0.3321070373058319,-0.8539962768554688
1782942010388552700,2.745552734375,-2.8500311374664307,0.45586922764778137,-0.9426059126853943
1782942010398538800,2.755538818359375,-2.762272357940674,1.090280294418335,-0.932761013507843
1782942010408523800,2.765523681640625,-2.5842957496643066,1.4969093799591064,-0.8609762787818909
1782942010418508800,2.7755087890625,-2.352327346801758,1.6927719116210938,-0.7464654445648193
1782942010428493800,2.785493896484375,-2.0515832901000977,1.7374048233032227,-0.6326814293861389
1782942010438478600,2.795478515625,-1.6937313079833984,1.6938267946243286,-0.5813109278678894
1782942010448463600,2.805463623046875,-1.3243279457092285,1.56126070022583,-0.5796117782592773
1782942010458448600,2.81544873046875,-0.9440655708312988,1.3741810321807861,-0.6110005974769592
1782942010468433700,2.82543359375,-0.5471440553665161,1.1639376878738403,-0.6435225009918213
1782942010478419000,2.8354189453125,-0.15724393725395203,0.9038504362106323,-0.6430812478065491
1782942010488403700,2.84540380859375,0.22184570133686066,0.6039968729019165,-0.6069019436836243
1782942010498389800,2.8553896484375,0.575888991355896,0.24092864990234375,-0.5376243591308594
1782942010508374800,2.865374755859375,0.8680661916732788,-0.1465897113084793,-0.4613341987133026
1782942010518359600,2.875359619140625,1.0917810201644897,-0.527725100517273,-0.3997824192047119
1782942010528344600,2.885344482421875,1.2474740743637085,-0.9354496598243713,-0.3820061683654785
1782942010538329900,2.895329833984375,1.3445353507995605,-1.330753207206726,-0.41292279958724976
1782942010548315000,2.90531494140625,1.389410138130188,-1.6615973711013794,-0.485808402299881
1782942010558300000,2.9152998046875,1.412194013595581,-1.9200398921966553,-0.5963770151138306
1782942010568284700,2.92528466796875,1.4414297342300415,-2.1137266159057617,-0.6979764699935913
1782942010578269700,2.935269775390625,1.4848358631134033,-2.243433713912964,-0.774960458278656
1782942010588254700,2.945254638671875,1.5393913984298706,-2.303443431854248,-0.8273664712905884
1782942010598239700,2.95523974609375,1.6161280870437622,-2.318902015686035,-0.8377538919448853
1782942010608225800,2.965225830078125,1.7005864381790161,-2.2814908027648926,-0.7977635264396667
1782942010618210800,2.9752109375,1.7919813394546509,-2.1987879276275635,-0.7096418738365173
1782942010628195800,2.98519580078125,1.8912315368652344,-2.103447675704956,-0.6053528189659119
1782942010638180600,2.9951806640625,2.0088815689086914,-2.015122413635254,-0.49125877022743225
1782942010648165600,3.00516552734375,2.1346988677978516,-1.9410325288772583,-0.39665454626083374
1782942010658150700,3.015150634765625,2.259779691696167,-1.8593337535858154,-0.3219994902610779
1782942010668135700,3.0251357421875,2.3750882148742676,-1.761567234992981,-0.2544595003128052
1782942010678120700,3.03512060546875,2.4730887413024902,-1.6443098783493042,-0.21881096065044403
1782942010688105700,3.045105712890625,2.539318084716797,-1.5047550201416016,-0.21234580874443054
1782942010698090800,3.0550908203125,2.554154634475708,-1.3687620162963867,-0.18880213797092438
1782942010708075800,3.06507568359375,2.5212619304656982,-1.2334160804748535,-0.1066218838095665
1782942010718061800,3.075061767578125,2.4614102840423584,-1.0812803506851196,0.03684366121888161
1782942010728046800,3.085046875,2.3734540939331055,-0.9238618016242981,0.19456985592842102
1782942010738031900,3.095031982421875,2.275411605834961,-0.7901836037635803,0.31785905361175537
1782942010748017000,3.105016845703125,2.164888620376587,-0.6412757635116577,0.3817150592803955
1782942010758002000,3.115001953125,1.9919981956481934,-0.5120738744735718,0.43192869424819946
1782942010767986700,3.124986572265625,1.7938812971115112,-0.3858910799026489,0.48369672894477844
1782942010777971700,3.1349716796875,1.6350226402282715,-0.22208775579929352,0.4710850715637207
1782942010787957000,3.14495703125,1.4492621421813965,0.2508400082588196,0.14372211694717407
1782942010797942000,3.15494189453125,0.8467051386833191,0.9735391139984131,-0.7445355653762817
1782942010807926800,3.1649267578125,-0.5353846549987793,1.337870478630066,-2.4944655895233154
1782942010817911800,3.174911865234375,-2.3523099422454834,0.6577622294425964,-5.044429779052734
1782942010827897900,3.18489794921875,-3.877253770828247,-1.1253975629806519,-7.286352157592773
1782942010837883000,3.1948828125,-4.79471492767334,-2.9859602451324463,-7.510639667510986
1782942010847868000,3.204867919921875,-5.084249496459961,-3.156808853149414,-5.322922706604004
1782942010857853000,3.21485302734375,-4.379103660583496,-1.6200721263885498,-2.3546202182769775
1782942010867838000,3.224837890625,-2.653517246246338,0.19831982254981995,-0.31644025444984436
1782942010877823000,3.234822998046875,-0.837399423122406,1.9152650833129883,0.5911815166473389
1782942010887807700,3.244807861328125,0.36049842834472656,3.4890692234039307,1.1665420532226562
1782942010897792800,3.254792724609375,0.9205620288848877,4.586305618286133,1.8330860137939453
1782942010907777800,3.26477783203125,0.9723950028419495,5.0676093101501465,2.4607934951782227
1782942010917762800,3.2747626953125,0.7160665392875671,5.071964740753174,2.8162550926208496
1782942010927748900,3.284748779296875,0.3974393904209137,4.744850158691406,2.7613537311553955
1782942010937734000,3.29473388671875,0.1454724222421646,4.368363857269287,2.332458972930908
1782942010947719000,3.304718994140625,-0.00016015861183404922,4.053808212280273,1.7072848081588745
1782942010957704000,3.314703857421875,-0.0385056808590889,3.766233444213867,1.073643684387207
1782942010967688700,3.324688720703125,-0.0019786348566412926,3.475255250930786,0.5973484516143799
1782942010977673700,3.334673828125,0.04819398745894432,3.1213483810424805,0.3434264659881592
1782942010987658800,3.34465869140625,0.0930943414568901,2.651946544647217,0.26966774463653564
1782942010997644000,3.35464404296875,0.14167597889900208,2.1009418964385986,0.30008530616760254
1782942011007628800,3.36462890625,0.20298147201538086,1.549802541732788,0.38819074630737305
1782942011017613800,3.37461376953125,0.29327327013015747,1.0374835729599,0.4849788248538971
1782942011027600000,3.384599853515625,0.41581472754478455,0.6092163324356079,0.5810645818710327
1782942011037585000,3.3945849609375,0.5681408643722534,0.2583840489387512,0.6576738953590393
1782942011047569700,3.404569580078125,0.7320237755775452,-0.02276238426566124,0.7296065092086792
1782942011057555000,3.414554931640625,0.889557957649231,-0.24080869555473328,0.8009107708930969
1782942011067540000,3.4245400390625,1.0201910734176636,-0.3842625021934509,0.8517462015151978
1782942011077525000,3.43452490234375,1.1045831441879272,-0.4482380151748657,0.8753564357757568
1782942011087509800,3.444509765625,1.133000373840332,-0.41060301661491394,0.8711190819740295
1782942011097494800,3.454494873046875,1.1183801889419556,-0.3078548014163971,0.8518263101577759
1782942011107479800,3.464479736328125,1.0756337642669678,-0.18256831169128418,0.8189639449119568
1782942011117464800,3.47446484375,1.0225242376327515,-0.0440615639090538,0.7753956913948059
1782942011127449900,3.484449951171875,0.976652204990387,0.11717265099287033,0.7350261807441711
1782942011137436000,3.494435791015625,0.9366387724876404,0.29336604475975037,0.7181047201156616
1782942011147421000,3.5044208984375,0.9153122305870056,0.4846426844596863,0.7112902998924255
1782942011157406000,3.514406005859375,0.9074369668960571,0.7076408863067627,0.7110578417778015
1782942011167390700,3.524390625,0.9112009406089783,0.9907410144805908,0.718094527721405
1782942011177375700,3.534375732421875,0.9162518978118896,1.3518587350845337,0.6895411610603333
1782942011187360800,3.54436083984375,0.9050473570823669,1.7262699604034424,0.5686002969741821
1782942011197346000,3.554345947265625,0.8411983251571655,1.9738919734954834,0.3159976303577423
1782942011207330800,3.564330810546875,0.6985313892364502,1.9273747205734253,-0.0932658314704895
1782942011217315800,3.57431591796875,0.47942623496055603,1.3828775882720947,-0.6453388333320618
1782942011227300900,3.58430078125,0.11995259672403336,0.3272832930088043,-1.2402368783950806
1782942011237286000,3.594285888671875,-0.43222934007644653,-1.2291258573532104,-1.76492178440094
1782942011247271700,3.604271728515625,-1.1579400300979614,-3.0986990928649902,-2.244509696960449
1782942011257256700,3.614256591796875,-1.8376878499984741,-4.78657341003418,-2.7101433277130127
1782942011267242000,3.624241943359375,-2.1603200435638428,-5.629261016845703,-3.0752956867218018
1782942011277227000,3.63422705078125,-2.1348025798797607,-5.4931111335754395,-3.116814613342285
1782942011287211800,3.644211669921875,-1.8126741647720337,-4.223708152770996,-2.6085963249206543
1782942011297196800,3.65419677734375,-1.329379677772522,-2.1926615238189697,-1.8040720224380493
1782942011307181800,3.664181884765625,-0.7673298716545105,-0.4229554235935211,-1.1716665029525757
1782942011317166800,3.674166748046875,-0.18280330300331116,0.7235769629478455,-0.8052696585655212
1782942011327151900,3.68415185546875,0.2999529540538788,1.4106769561767578,-0.5133750438690186
1782942011337136600,3.69413671875,0.5991438627243042,1.7107470035552979,-0.15453407168388367
1782942011347123000,3.704123046875,0.7237017154693604,1.6902027130126953,0.20921720564365387
1782942011357108000,3.71410791015625,0.7508699297904968,1.5384806394577026,0.4854021966457367
1782942011367092700,3.7240927734375,0.6999738812446594,1.3816208839416504,0.6007716655731201
1782942011377077800,3.734077880859375,0.5977598428726196,1.2544975280761719,0.5299670100212097
1782942011387062800,3.744062744140625,0.47004297375679016,1.124193787574768,0.29545095562934875
1782942011397047800,3.7540478515625,0.32904642820358276,0.9545615911483765,-0.029904259368777275
1782942011407033000,3.764033203125,0.18583056330680847,0.7535499930381775,-0.36752811074256897
1782942011417017900,3.774017822265625,0.04061691462993622,0.5264207124710083,-0.6585719585418701
1782942011427003000,3.7840029296875,-0.09818453341722488,0.2832047939300537,-0.8784973621368408
1782942011436988000,3.79398779296875,-0.21927207708358765,0.04872838035225868,-1.041884422302246
1782942011446973000,3.803972900390625,-0.3255074620246887,-0.16917727887630463,-1.164643406867981
1782942011456958700,3.813958740234375,-0.42242467403411865,-0.3623722791671753,-1.2359837293624878
1782942011466943700,3.82394384765625,-0.4969722330570221,-0.5110825300216675,-1.274419903755188
1782942011476929000,3.833928955078125,-0.5524608492851257,-0.6095787882804871,-1.2941373586654663
1782942011486913800,3.843913818359375,-0.5888773798942566,-0.6484717130661011,-1.3137316703796387
1782942011496898800,3.85389892578125,-0.5927301645278931,-0.5993233323097229,-1.3398545980453491
1782942011506883800,3.8638837890625,-0.5687063336372375,-0.5095378160476685,-1.3862905502319336
1782942011516868900,3.873868896484375,-0.5311384797096252,-0.45579737424850464,-1.4232784509658813
1782942011526854000,3.88385400390625,-0.4722018837928772,-0.4488582909107208,-1.4139950275421143
1782942011536838700,3.893838623046875,-0.39880409836769104,-0.5282921195030212,-1.3511773347854614
1782942011546823700,3.90382373046875,-0.30910661816596985,-0.6246048212051392,-1.248728632926941
1782942011556810000,3.91381005859375,-0.26247119903564453,-0.6891276240348816,-1.1504331827163696
1782942011566794800,3.923794677734375,-0.26841357350349426,-0.7386038899421692,-1.1080886125564575
1782942011576779800,3.93377978515625,-0.3171968162059784,-0.7388750314712524,-1.1015617847442627
1782942011586764800,3.943764892578125,-0.3918803930282593,-0.6403304934501648,-1.1129573583602905
1782942011596749800,3.953749755859375,-0.47763392329216003,-0.4341498911380768,-1.1191967725753784
1782942011606734800,3.96373486328125,-0.5680108666419983,-0.1771518439054489,-1.1096216440200806
1782942011616720000,3.973719970703125,-0.6519212126731873,0.05624707043170929,-1.0764764547348022
1782942011626705000,3.983704833984375,-0.7202364206314087,0.21858061850070953,-0.9918060898780823
1782942011636690000,3.99368994140625,-0.7657684683799744,0.29582828283309937,-0.8412754535675049
1782942011646675000,4.003675048828125,-0.7827744483947754,0.2851550281047821,-0.6437194347381592
1782942011656660700,4.01366064453125,-0.782135009765625,0.18761329352855682,-0.4316953420639038
1782942011666645800,4.023645751953125,-0.7890476584434509,0.05942583829164505,-0.21368539333343506
1782942011676631000,4.033631103515625,-0.7723046541213989,-0.03648817166686058,0.03057362325489521
1782942011686616000,4.043615966796875,-0.7015478610992432,-0.07228613644838333,0.25087207555770874
1782942011696600800,4.053600830078125,-0.5889685750007629,0.006563669070601463,0.45263954997062683
1782942011706585900,4.0635859375,-0.46414297819137573,0.2212476283311844,0.6232708096504211
1782942011716574700,4.07357470703125,-0.39368826150894165,0.348678320646286,0.6637394428253174
1782942011726559700,4.083559814453125,-0.4028294086456299,0.35799065232276917,0.5138946771621704
1782942011736544500,4.09354443359375,-0.43047595024108887,0.414523720741272,0.32591280341148376
1782942011746529500,4.103529541015625,-0.2868085503578186,-0.17248322069644928,0.3461746275424957
1782942011756514600,4.1135146484375,0.01859663426876068,-1.0174566507339478,0.6925144195556641
1782942011766500600,4.12350048828125,0.5210970044136047,-1.6828596591949463,1.3879612684249878
1782942011776485600,4.133485595703125,1.1054456233978271,-1.837777853012085,2.3084676265716553
1782942011786470700,4.143470703125,1.7367277145385742,-1.3017959594726562,3.4355947971343994
1782942011796455700,4.15345556640625,2.248431921005249,-0.5625156760215759,4.535412311553955
1782942011806440700,4.163440673828125,2.508777379989624,0.3095872700214386,5.297878265380859
1782942011816425500,4.173425537109375,2.5058488845825195,1.165764570236206,5.61820650100708
1782942011826410500,4.183410400390625,2.2928318977355957,1.9375883340835571,5.696408748626709
1782942011836395500,4.1933955078125,1.8668161630630493,2.3905017375946045,5.551001071929932
1782942011846380800,4.203380859375,1.3719877004623413,2.548323392868042,5.188474178314209
1782942011856365600,4.213365478515625,0.9862152338027954,2.5715112686157227,4.685025691986084
1782942011866351600,4.2233515625,0.757451057434082,2.5127923488616943,4.166168689727783
1782942011876336600,4.233336669921875,0.6934934258460999,2.2592732906341553,3.7003345489501953
1782942011886321700,4.24332177734375,0.7179171442985535,1.768891453742981,3.233964681625366
1782942011896306400,4.253306396484375,0.746628999710083,1.1061121225357056,2.7473268508911133
1782942011906291700,4.263291748046875,0.71015465259552,0.367176353931427,2.24993634223938
1782942011916276700,4.27327685546875,0.6129082441329956,-0.3281310498714447,1.6952508687973022
1782942011926261800,4.28326171875,0.4705999195575714,-0.9464110732078552,1.164246916770935
1782942011936246500,4.29324658203125,0.31398820877075195,-1.4832968711853027,0.7285239696502686
1782942011946231600,4.3032314453125,0.13971932232379913,-1.934175968170166,0.41300463676452637
1782942011956217600,4.313217529296875,-0.031587980687618256,-2.225860595703125,0.20858626067638397
1782942011966202600,4.32320263671875,-0.2346961796283722,-2.332716941833496,0.08790148049592972
1782942011976187600,4.333187744140625,-0.5033990144729614,-2.2648415565490723,-0.02937507815659046
1782942011986172700,4.343172607421875,-0.8361755609512329,-2.079953670501709,-0.17895230650901794
1782942011996157700,4.35315771484375,-1.1997654438018799,-1.827823281288147,-0.3459508717060089
1782942012006142700,4.363142822265625,-1.5515867471694946,-1.5180984735488892,-0.5122062563896179
1782942012016127500,4.37312744140625,-1.8560435771942139,-1.1974538564682007,-0.673957884311676
1782942012026112500,4.383112548828125,-2.0574235916137695,-0.8770420551300049,-0.7850790023803711
1782942012036097500,4.39309765625,-2.138298749923706,-0.5705156922340393,-0.8420631885528564
1782942012046082600,4.40308251953125,-2.1015408039093018,-0.30273348093032837,-0.8268414735794067
1782942012056068600,4.413068603515625,-1.949220895767212,-0.08434789627790451,-0.7402450442314148
1782942012066053600,4.4230537109375,-1.7056745290756226,0.09755697101354599,-0.6173129677772522
1782942012076038700,4.43303857421875,-1.385103702545166,0.24629932641983032,-0.499269962310791
1782942012086023700,4.443023681640625,-1.0214956998825073,0.3716088831424713,-0.3951471745967865
1782942012096008400,4.453008544921875,-0.6816929578781128,0.48135268688201904,-0.34976983070373535
1782942012105993500,4.462993408203125,-0.4051450788974762,0.5632179975509644,-0.3934610188007355
1782942012115978800,4.472978759765625,-0.18930092453956604,0.6164596676826477,-0.494955450296402
1782942012125963800,4.4829638671875,-0.038620952516794205,0.6330205202102661,-0.6401124596595764
1782942012135948500,4.492948486328125,0.03824373707175255,0.6098818778991699,-0.8044177889823914
1782942012145933600,4.50293359375,0.06286000460386276,0.5458471179008484,-0.9780810475349426
1782942012155919600,4.512919677734375,0.059872206300497055,0.42089879512786865,-1.1346991062164307
1782942012165904600,4.522904541015625,0.06321693956851959,0.1996239721775055,-1.2533042430877686
1782942012175889400,4.532889404296875,0.09212128818035126,-0.11526898294687271,-1.3173251152038574
1782942012185874700,4.542874755859375,0.14433051645755768,-0.4835686981678009,-1.33846116065979
1782942012195859700,4.552859619140625,0.2092069834470749,-0.8588786721229553,-1.3153752088546753
1782942012205844700,4.5628447265625,0.2713977098464966,-1.1581441164016724,-1.2619823217391968
1782942012215829500,4.57282958984375,0.32815632224082947,-1.307908535003662,-1.231532096862793
1782942012225814500,4.582814453125,0.403674453496933,-1.3435579538345337,-1.2316981554031372
1782942012235799600,4.592799560546875,0.48970654606819153,-1.2852954864501953,-1.2226126194000244
1782942012245784600,4.60278466796875,0.5931460857391357,-1.1469972133636475,-1.1904501914978027
1782942012255769600,4.61276953125,0.7152589559555054,-0.975618302822113,-1.1440517902374268
1782942012265755600,4.622755615234375,0.8533961176872253,-0.7914575338363647,-1.0663670301437378
1782942012275740700,4.63274072265625,1.0065385103225708,-0.6481102705001831,-0.9601612091064453
1782942012285725700,4.6427255859375,1.1598272323608398,-0.5817980766296387,-0.8337344527244568
1782942012295710500,4.65271044921875,1.3072270154953003,-0.5813506841659546,-0.6676895022392273
1782942012305695500,4.662695556640625,1.4377539157867432,-0.6546449661254883,-0.48344936966896057
1782942012315680500,4.672680419921875,1.5449408292770386,-0.7733436226844788,-0.30282577872276306
1782942012325665800,4.682665771484375,1.6075718402862549,-0.9082900285720825,-0.155380517244339
1782942012335650600,4.692650634765625,1.614793300628662,-1.0060386657714844,-0.06923604756593704
1782942012345635600,4.702635498046875,1.5626447200775146,-0.975992739200592,-0.03652229905128479
1782942012355620600,4.71262060546875,1.4471436738967896,-0.8188396096229553,-0.04872623458504677
1782942012365606700,4.722606689453125,1.2902848720550537,-0.607867419719696,-0.1060192734003067
1782942012375591400,4.73259130859375,1.1145527362823486,-0.3381824195384979,-0.13358990848064423
1782942012385576700,4.74257666015625,0.956242024898529,-0.08259066194295883,-0.12050527334213257
1782942012395561700,4.752561767578125,0.845594048500061,0.045858386904001236,-0.0298512764275074
1782942012405546800,4.762546630859375,0.8047804236412048,0.039632175117731094,0.1485975980758667
1782942012415531500,4.772531494140625,0.8439768552780151,-0.024383023381233215,0.3341831862926483
1782942012425516500,4.7825166015625,0.8363973498344421,0.08637724071741104,0.29475197196006775
1782942012435501600,4.79250146484375,0.45158547163009644,0.6998978853225708,-0.3100804090499878
1782942012445486600,4.802486572265625,-0.5878456830978394,1.2458339929580688,-1.6854909658432007
1782942012455471600,4.8124716796875,-2.2610831260681152,1.1756011247634888,-3.495490074157715
1782942012465457700,4.822457763671875,-4.020737648010254,0.21433980762958527,-4.794643878936768
1782942012475442700,4.832442626953125,-5.175669193267822,-0.5951530337333679,-4.581691741943359
1782942012485427700,4.842427734375,-5.377511024475098,0.04306023567914963,-2.959354877471924
1782942012495412500,4.85241259765625,-4.518365859985352,2.2027769088745117,-1.2357980012893677
1782942012505397500,4.8623974609375,-2.745779275894165,3.9286584854125977,-0.14993366599082947
1782942012515382500,4.872382568359375,-0.7656965255737305,3.914921522140503,1.0504788160324097
1782942012525367600,4.882367431640625,0.7881930470466614,2.882179021835327,2.9118399620056152
1782942012535352800,4.892352783203125,1.6616244316101074,1.5414806604385376,4.6880059242248535
1782942012545337600,4.902337646484375,1.9222835302352905,0.16952043771743774,5.502776145935059
1782942012555322600,4.912322509765625,1.7148845195770264,-0.6746219992637634,5.412919998168945
1782942012565308700,4.92230859375,1.1465308666229248,-0.6640897989273071,4.8276896476745605
1782942012575293400,4.93229345703125,0.44971156120300293,-0.050111573189496994,4.028326988220215
1782942012585278500,4.942278564453125,-0.20008568465709686,1.0275179147720337,3.2863967418670654
1782942012595263700,4.952263671875,-0.7360061407089233,2.4111008644104004,2.608508348464966
1782942012605248800,4.962248779296875,-0.9984666705131531,3.6272637844085693,2.032778263092041
1782942012615233500,4.972233642578125,-0.9254254102706909,4.192221641540527,1.6121361255645752
1782942012625218600,4.982218505859375,-0.6623431444168091,3.7883481979370117,1.408642053604126
1782942012635203600,4.99220361328125,-0.37729912996292114,2.522341251373291,1.4182552099227905
1782942012645188600,5.002188720703125,-0.1704944670200348,0.7747555375099182,1.4264657497406006
1782942012655173600,5.012173583984375,-0.11236140131950378,-0.867371141910553,1.2483410835266113
1782942012665159700,5.02215966796875,-0.15717531740665436,-2.0038723945617676,0.7825939059257507
1782942012675144700,5.032144775390625,-0.16051198542118073,-2.6100780963897705,0.1315237432718277
1782942012685129700,5.042129638671875,-0.12916865944862366,-2.902228593826294,-0.44216033816337585
1782942012695114500,5.052114501953125,-0.10122863948345184,-2.8468775749206543,-0.6520062685012817
1782942012705099500,5.062099609375,-0.19196677207946777,-2.486287832260132,-0.5634325742721558
1782942012715080700,5.072080810546875,-0.39129215478897095,-2.0034425258636475,-0.4135538935661316
1782942012725066000,5.08206591796875,-0.6285607814788818,-1.450224757194519,-0.39444008469581604
1782942012735051000,5.092051025390625,-0.8451921939849854,-0.925870954990387,-0.510062038898468
1782942012745035800,5.102035888671875,-1.0191181898117065,-0.4789012670516968,-0.6773859262466431
1782942012755020800,5.112020751953125,-1.1099708080291748,-0.13757164776325226,-0.8404036164283752
1782942012765006800,5.1220068359375,-1.1104127168655396,0.0794048011302948,-0.9858144521713257
1782942012774992000,5.131991943359375,-1.0149458646774292,0.16890965402126312,-1.115422010421753
1782942012784977000,5.141976806640625,-0.8706284165382385,0.17496907711029053,-1.249524712562561
1782942012794962000,5.1519619140625,-0.6851562857627869,0.15309573709964752,-1.3807905912399292
1782942012804947000,5.161947021484375,-0.4664890170097351,0.13203750550746918,-1.4607726335525513
1782942012814932000,5.171931884765625,-0.22952544689178467,0.15707920491695404,-1.4853477478027344
1782942012824916700,5.181916748046875,-0.0028810049407184124,0.2295844554901123,-1.4511611461639404
1782942012834901800,5.19190185546875,0.1946810781955719,0.30632713437080383,-1.4143054485321045
1782942012844886800,5.20188671875,0.32670721411705017,0.3468276858329773,-1.3733346462249756
1782942012854872800,5.211872802734375,0.3930470943450928,0.34195807576179504,-1.3339112997055054
1782942012864857900,5.22185791015625,0.43442562222480774,0.249701589345932,-1.318691372871399
1782942012874843000,5.2318427734375,0.45033666491508484,0.09279347211122513,-1.3130306005477905
1782942012884828000,5.241827880859375,0.4400040805339813,-0.110446035861969,-1.305203914642334
1782942012894813000,5.25181298828125,0.41286301612854004,-0.32754507660865784,-1.3075501918792725
1782942012904797700,5.261797607421875,0.3668248653411865,-0.5311568379402161,-1.320517897605896
1782942012914782700,5.27178271484375,0.3420622646808624,-0.7165402770042419,-1.351578950881958
1782942012924768000,5.28176806640625,0.34004414081573486,-0.8884270787239075,-1.3717753887176514
1782942012934753000,5.2917529296875,0.39482349157333374,-1.0147603750228882,-1.3640624284744263
1782942012944737800,5.30173779296875,0.5380880236625671,-1.0654337406158447,-1.3092336654663086
1782942012954722800,5.311722900390625,0.7501608729362488,-1.0506858825683594,-1.1909579038619995
1782942012964708900,5.321708984375,1.0052682161331177,-0.9985513091087341,-1.0008141994476318
1782942012974694000,5.33169384765625,1.2746036052703857,-0.9437088370323181,-0.7412276864051819
1782942012984678700,5.3416787109375,1.5372823476791382,-0.9317130446434021,-0.45126479864120483
1782942012994664000,5.351663818359375,1.750314474105835,-0.9677978157997131,-0.1693849116563797
1782942013004649000,5.36164892578125,1.9020413160324097,-1.0150237083435059,0.03030567429959774
1782942013014634000,5.371634033203125,1.9709089994430542,-1.0382438898086548,0.10564516484737396
1782942013024618800,5.38161865234375,1.9362448453903198,-0.9979928135871887,0.07755749672651291
1782942013034603800,5.391603759765625,1.8103675842285156,-0.9159325957298279,0.011686606332659721
1782942013044588800,5.4015888671875,1.6470940113067627,-0.845342218875885,-0.035267315804958344
1782942013054574800,5.411574951171875,1.4898128509521484,-0.7667616605758667,-0.04895010218024254
1782942013064559900,5.421559814453125,1.3599228858947754,-0.6819279193878174,-0.024889253079891205
1782942013074545000,5.431544921875,1.2710555791854858,-0.6172005534172058,0.03832247480750084
1782942013084530000,5.441530029296875,1.1888617277145386,-0.48874548077583313,0.1605372428894043
1782942013094515000,5.451514892578125,1.0615639686584473,-0.30761298537254333,0.3372094929218292
1782942013104499700,5.461499755859375,0.9032887816429138,-0.07509131729602814,0.5109903216362
1782942013114484700,5.471484619140625,0.7483124732971191,0.3001733720302582,0.5968636870384216
1782942013124469800,5.4814697265625,0.6079055666923523,0.8178942203521729,0.374752938747406
1782942013134455000,5.491455078125,0.38057366013526917,1.2578191757202148,-0.3572317957878113
1782942013144439800,5.501439697265625,-0.20454373955726624,1.1655604839324951,-1.5813186168670654
1782942013154425900,5.51142578125,-1.3419755697250366,0.03296039253473282,-2.999863862991333
1782942013164411000,5.521410888671875,-2.875173807144165,-1.4266862869262695,-3.86904239654541
1782942013174396000,5.53139599609375,-4.169258117675781,-1.8874181509017944,-3.5642547607421875
1782942013184380700,5.541380615234375,-4.880959510803223,0.22204434871673584,-2.2067525386810303
1782942013194365700,5.55136572265625,-4.922103404998779,4.417117118835449,-0.537651777267456
1782942013204351000,5.56135107421875,-4.068459510803223,7.810469150543213,0.5681954622268677
1782942013214336000,5.5713359375,-2.3301470279693604,8.420795440673828,1.114432692527771
1782942013224320800,5.58132080078125,-0.41893941164016724,6.826685905456543,1.9086360931396484
1782942013234305800,5.591305908203125,1.2374290227890015,4.06886100769043,3.240354061126709
1782942013244290800,5.601290771484375,2.455570697784424,1.203051209449768,4.448700428009033
1782942013254275800,5.61127587890625,3.229424238204956,-0.9405351281166077,5.049383640289307
1782942013264262000,5.621261962890625,3.637075901031494,-2.4149422645568848,5.169085502624512
1782942013274247000,5.631246826171875,3.5877561569213867,-2.698540210723877,5.178128242492676
1782942013284232000,5.64123193359375,3.068108081817627,-1.5836386680603027,5.072467803955078
1782942013294217000,5.651217041015625,2.2953836917877197,0.3505057394504547,4.667479991912842
1782942013304201700,5.66120166015625,1.4918726682662964,2.2223904132843018,4.011663436889648
1782942013314186800,5.671186767578125,0.7161380052566528,3.631633758544922,3.3522865772247314
1782942013324171800,5.681171875,0.08407386392354965,4.395725727081299,2.7810263633728027
1782942013334156800,5.69115673828125,-0.3055002689361572,4.467803955078125,2.257175922393799
1782942013344142000,5.70114208984375,-0.4505956172943115,4.021257400512695,1.7282694578170776
1782942013354128000,5.7111279296875,-0.42153415083885193,3.155816078186035,1.1824226379394531
1782942013364113000,5.72111279296875,-0.32879164814949036,2.004030704498291,0.6965805888175964
1782942013374098000,5.731097900390625,-0.20323427021503448,0.7335829734802246,0.3183499574661255
1782942013384082700,5.741082763671875,-0.08314478397369385,-0.43304142355918884,0.06701654195785522
1782942013394067700,5.751067626953125,0.07215213030576706,-1.3148889541625977,-0.04084014892578125
1782942013404053000,5.761052978515625,0.2519688308238983,-1.9525537490844727,-0.01640699990093708
1782942013414038000,5.7710380859375,0.43777918815612793,-2.359977960586548,0.12038014084100723
1782942013424023000,5.78102294921875,0.5853188037872314,-2.4756882190704346,0.3154931962490082
1782942013434007800,5.7910078125,0.6558805704116821,-2.3453938961029053,0.5009568333625793
1782942013443992800,5.800992919921875,0.6431145071983337,-2.07493257522583,0.6008532047271729
1782942013453979000,5.810978759765625,0.550590455532074,-1.7656952142715454,0.6099202036857605
1782942013463963600,5.820963623046875,0.40534013509750366,-1.4465503692626953,0.5463529229164124
1782942013473949000,5.830948974609375,0.24146680533885956,-1.1257853507995605,0.4461158514022827
1782942013483934000,5.840933837890625,0.10592970997095108,-0.8321264982223511,0.3255668878555298
1782942013493919000,5.8509189453125,0.01801903359591961,-0.5490612387657166,0.205515056848526
1782942013503903700,5.86090380859375,-0.016212789341807365,-0.3053838908672333,0.11908870935440063
1782942013513888800,5.870888671875,0.01979714259505272,-0.1385674774646759,0.06977122277021408
1782942013523873800,5.880873779296875,0.09319345653057098,-0.03924072906374931,0.056728001683950424
1782942013533858800,5.89085888671875,0.16404207050800323,0.036443378776311874,0.06460429728031158
1782942013543843800,5.90084375,0.2356404960155487,0.09998011589050293,0.07922464609146118
1782942013553830000,5.910829833984375,0.31924667954444885,0.11754339933395386,0.0836915671825409
1782942013563815000,5.92081494140625,0.39082619547843933,0.1267053782939911,0.08555019646883011
1782942013573800000,5.930800048828125,0.4386078119277954,0.15101498365402222,0.08370808511972427
1782942013583784700,5.94078466796875,0.45976313948631287,0.17002452909946442,0.07713340222835541
1782942013593769700,5.950769775390625,0.46219566464424133,0.17465949058532715,0.0666314959526062
1782942013603754800,5.960754638671875,0.4462949335575104,0.1561855673789978,0.032082751393318176
1782942013613740000,5.970739990234375,0.4170161485671997,0.0944923684000969,-0.027243420481681824
1782942013623725000,5.98072509765625,0.3759004473686218,-0.010250657796859741,-0.10515669733285904
1782942013633709800,5.990709716796875,0.3510773777961731,-0.16073575615882874,-0.1960919350385666
1782942013643694800,6.00069482421875,0.3524189293384552,-0.3506684899330139,-0.3025125563144684
1782942013653681000,6.010680908203125,0.3908187747001648,-0.5739976763725281,-0.4023693799972534
1782942013663665700,6.020665771484375,0.46841782331466675,-0.8329300880432129,-0.49965694546699524
1782942013673650700,6.030650634765625,0.5734316110610962,-1.0919743776321411,-0.5707657933235168
1782942013683636000,6.040635986328125,0.6959609985351562,-1.3170511722564697,-0.6218644976615906
1782942013693621000,6.05062109375,0.8109312057495117,-1.528628945350647,-0.6290656924247742
1782942013703606000,6.06060595703125,0.9084236025810242,-1.727643609046936,-0.6036542057991028
1782942013713591300,6.07059130859375,0.9753533601760864,-1.8972272872924805,-0.5664690136909485
1782942013723576300,6.080576416015625,1.0175719261169434,-2.013425827026367,-0.5502781867980957
1782942013733561600,6.0905615234375,1.0392942428588867,-2.0651204586029053,-0.5851656198501587
1782942013743546400,6.10054638671875,1.0444858074188232,-2.0414438247680664,-0.6572393774986267
1782942013753532400,6.110532470703125,1.0513019561767578,-1.9471352100372314,-0.7702231407165527
1782942013763517400,6.120517333984375,1.058117389678955,-1.784400463104248,-0.9533692002296448
1782942013773502500,6.13050244140625,1.0295472145080566,-1.5402288436889648,-1.1874419450759888
1782942013783487200,6.1404873046875,0.9293307065963745,-1.2320833206176758,-1.3966400623321533
1782942013793472300,6.15047216796875,0.7871309518814087,-0.9173764586448669,-1.4806725978851318
1782942013803457500,6.16045751953125,0.695094108581543,-0.6261314749717712,-1.3854564428329468
1782942013813442600,6.170442626953125,0.7634169459342957,-0.47970399260520935,-1.1592459678649902
1782942013823427300,6.18042724609375,0.9801257252693176,-0.6891559362411499,-1.0371867418289185
1782942013833412400,6.190412353515625,1.0343116521835327,-1.2395650148391724,-1.1508738994598389
1782942013843397400,6.2003974609375,0.1976097822189331,-1.4412397146224976,-1.5842269659042358
1782942013853383400,6.210383544921875,-1.767603874206543,-1.9067124128341675,-3.1333513259887695
1782942013863368400,6.220368408203125,-4.290998935699463,-3.447100877761841,-6.170410633087158
1782942013873353500,6.230353515625,-6.383602619171143,-5.12477970123291,-9.215678215026855
1782942013883338500,6.24033837890625,-7.608944892883301,-5.654844760894775,-10.517970085144043
1782942013893323500,6.250323486328125,-8.099568367004395,-4.357846260070801,-9.390267372131348
1782942013903308300,6.260308349609375,-7.954502105712891,-1.8542412519454956,-7.129688739776611
1782942013913293300,6.270293212890625,-7.164607524871826,0.7041123509407043,-5.673898220062256
1782942013923278300,6.2802783203125,-6.212116718292236,3.451981782913208,-5.3310546875
1782942013933263400,6.290263427734375,-5.438431739807129,6.0650553703308105,-5.375152587890625
1782942013943248400,6.300248291015625,-4.797029495239258,8.193918228149414,-5.287952423095703
1782942013953234400,6.310234375,-4.223301410675049,9.591509819030762,-4.995901107788086
1782942013963219500,6.320219482421875,-3.7578415870666504,10.170902252197266,-4.565128326416016
1782942013973204500,6.33020458984375,-3.338355779647827,9.94530200958252,-4.020569324493408
1782942013983189200,6.340189208984375,-2.8623459339141846,9.037261009216309,-3.3637795448303223
1782942013993174300,6.35017431640625,-2.3253633975982666,7.662519931793213,-2.611008644104004
1782942014003159300,6.3601591796875,-1.753350019454956,6.07710599899292,-1.8107901811599731
1782942014013144600,6.37014453125,-1.1428728103637695,4.513458728790283,-1.029166579246521
1782942014023129300,6.38012939453125,-0.48602238297462463,3.096249580383301,-0.3458736538887024
1782942014033114400,6.3901142578125,0.17854177951812744,1.8811140060424805,0.1942785233259201
1782942014043099400,6.400099365234375,0.8389701843261719,0.7835323810577393,0.6286496520042419
1782942014053085400,6.41008544921875,1.438993215560913,-0.19938817620277405,0.9942111372947693
1782942014063070200,6.4200703125,1.9322965145111084,-1.0306347608566284,1.2818900346755981
1782942014073055500,6.430055419921875,2.29099178314209,-1.692741870880127,1.5110100507736206
1782942014083040500,6.44004052734375,2.5208277702331543,-2.1534626483917236,1.7183618545532227
1782942014093025500,6.450025634765625,2.6248152256011963,-2.392545461654663,1.891050100326538
1782942014103010300,6.46001025390625,2.61064076423645,-2.4472153186798096,1.9577897787094116
1782942014112995300,6.469995361328125,2.495490789413452,-2.333507537841797,1.8251429796218872
1782942014122980400,6.47998046875,2.310065984725952,-2.1166024208068848,1.5195729732513428
1782942014132965400,6.48996533203125,2.080662965774536,-1.893218755722046,1.1598608493804932
1782942014142950400,6.499950439453125,1.8078997135162354,-1.7204475402832031,0.868930459022522
1782942014152936400,6.5099365234375,1.5076535940170288,-1.535379409790039,0.7159925699234009
1782942014162921500,6.51992138671875,1.2016339302062988,-1.3543976545333862,0.713103175163269
1782942014172906500,6.529906494140625,0.9116896986961365,-1.266201138496399,0.8118960857391357
1782942014182891300,6.539891357421875,0.6629396080970764,-1.2080516815185547,0.9366005063056946
1782942014192876300,6.549876220703125,0.4237206280231476,-1.1847330331802368,0.9425100684165955
1782942014202861300,6.559861328125,0.16021651029586792,-1.210769534111023,0.7754326462745667
1782942014212846300,6.569846435546875,-0.11689231544733047,-1.2586904764175415,0.4888235330581665
1782942014222831400,6.579831298828125,-0.3803178071975708,-1.3106352090835571,0.20088955760002136
1782942014232816400,6.58981640625,-0.6129095554351807,-1.3260109424591064,0.028119109570980072
1782942014242801400,6.599801513671875,-0.7956040501594543,-1.332556962966919,0.02503037080168724
1782942014252787500,6.609787353515625,-0.9117817878723145,-1.3375434875488281,0.15627600252628326
1782942014262772200,6.619772216796875,-0.9731533527374268,-1.3461742401123047,0.3455355763435364
1782942014272757200,6.62975732421875,-0.9786841869354248,-1.3166927099227905,0.5458700060844421
1782942014282742500,6.639742431640625,-0.9328755140304565,-1.2203147411346436,0.7516840100288391
1782942014292727600,6.6497275390625,-0.8772252798080444,-1.098433256149292,0.9524959325790405
1782942014302712300,6.65971240234375,-0.8204271793365479,-0.9900118708610535,1.1169569492340088
1782942014312697300,6.669697265625,-0.7647897601127625,-0.9035102725028992,1.2310949563980103
1782942014322682400,6.679682373046875,-0.6991424560546875,-0.8589258790016174,1.287682056427002
1782942014332667400,6.68966748046875,-0.6245605945587158,-0.7931535243988037,1.273929476737976
1782942014342652400,6.69965234375,-0.5219600796699524,-0.6948021054267883,1.1785489320755005
1782942014352638500,6.709638427734375,-0.40529152750968933,-0.6060852408409119,1.0199342966079712
1782942014362623500,6.71962353515625,-0.2590864598751068,-0.41991350054740906,0.8498068451881409
1782942014372608500,6.7296083984375,-0.09119228273630142,-0.250199556350708,0.7173840999603271
1782942014382593300,6.73959326171875,0.03122781403362751,-0.13557550311088562,0.6417196989059448
1782942014392578300,6.749578369140625,0.07077602297067642,-0.08205901086330414,0.6303583383560181
1782942014402563300,6.759563232421875,0.02746712975203991,-0.0937134325504303,0.6510706543922424
1782942014412548400,6.76954833984375,-0.07353964447975159,-0.14248524606227875,0.6913925409317017
1782942014422533600,6.77953369140625,-0.1988629549741745,-0.2185722440481186,0.7338851094245911
1782942014432518400,6.789518310546875,-0.30951595306396484,-0.30736178159713745,0.7651727199554443
1782942014442503400,6.79950341796875,-0.41183918714523315,-0.4206330180168152,0.7834081649780273
1782942014452489500,6.809489501953125,-0.5115575790405273,-0.5403197407722473,0.7594155073165894
1782942014462474200,6.81947412109375,-0.6080398559570312,-0.6224586963653564,0.683388888835907
1782942014472459300,6.829459228515625,-0.6979265809059143,-0.6310476660728455,0.5700181126594543
1782942014482444300,6.8394443359375,-0.782129168510437,-0.5905920267105103,0.4410480260848999
1782942014492429600,6.8494296875,-0.8413661122322083,-0.5222440958023071,0.3112676441669464
1782942014502414600,6.85941455078125,-0.8757758736610413,-0.4176616072654724,0.2103530913591385
1782942014512399400,6.8693994140625,-0.8885254859924316,-0.289170503616333,0.13811084628105164
1782942014522384400,6.87938427734375,-0.8834595680236816,-0.1379060447216034,0.08573552966117859
1782942014532369400,6.889369384765625,-0.8532047271728516,0.026685573160648346,0.03353544697165489
1782942014542355200,6.899355224609375,-0.8037235140800476,0.14697453379631042,-0.005128738936036825
1782942014552340500,6.909340576171875,-0.7327417731285095,0.19428479671478271,-0.02202942594885826
1782942014562325500,6.919325439453125,-0.6451531052589417,0.17199501395225525,-0.007470298558473587
1782942014572310500,6.929310546875,-0.5434597730636597,0.09658706933259964,0.031247269362211227
1782942014582295300,6.93929541015625,-0.44149869680404663,0.0020364029332995415,0.08287864923477173
1782942014592280300,6.9492802734375,-0.35663866996765137,-0.09061843156814575,0.10958243161439896
1782942014602265300,6.959265380859375,-0.3066815435886383,-0.18874813616275787,0.10404659062623978
1782942014612250400,6.96925048828125,-0.26879966259002686,-0.2668780982494354,0.1011301651597023
1782942014622235400,6.9792353515625,-0.26230522990226746,-0.3031372129917145,0.12324106693267822
1782942014632220400,6.989220458984375,-0.28220275044441223,-0.30013635754585266,0.17218545079231262
1782942014642205400,6.999205322265625,-0.3253870904445648,-0.2844196557998657,0.2365785837173462
1782942014652191500,7.00919140625,-0.3685164749622345,-0.2661530375480652,0.30516642332077026
1782942014662176300,7.01917626953125,-0.39424586296081543,-0.2156800776720047,0.3548433780670166
1782942014672161300,7.029161376953125,-0.3989412784576416,-0.14687757194042206,0.38116925954818726
1782942014682146300,7.039146240234375,-0.3786115050315857,-0.059486471116542816,0.3726271688938141
1782942014692131300,7.04913134765625,-0.3417767882347107,0.00273988489061594,0.32743120193481445
1782942014702116600,7.05911669921875,-0.28457921743392944,0.0004887692630290985,0.2379450500011444
1782942014712100900,7.069100830078125,-0.2233976125717163,-0.07064692676067352,0.1351611465215683
1782942014722085600,7.079085693359375,-0.16943782567977905,-0.15304183959960938,0.05003080144524574
1782942014732070700,7.089070556640625,-0.14024397730827332,-0.20190872251987457,0.001986575312912464
1782942014742057000,7.099056884765625,-0.14229069650173187,-0.1913093775510788,-0.013535854406654835
1782942014752041700,7.109041748046875,-0.17215964198112488,-0.14121264219284058,-0.01182211097329855
1782942014762026800,7.11902685546875,-0.2064591944217682,-0.08488766849040985,0.0027057924307882786
1782942014772011800,7.12901171875,-0.23228013515472412,-0.0532037727534771,0.013351245783269405
1782942014781996800,7.138996826171875,-0.23794518411159515,-0.037486132234334946,0.019123757258057594
1782942014791981800,7.14898193359375,-0.24324487149715424,-0.025019876658916473,0.015227019786834717
1782942014801966600,7.158966552734375,-0.24276049435138702,-0.019338145852088928,-0.01882198080420494
1782942014811951900,7.168951904296875,-0.23281943798065186,-0.014970827847719193,-0.07280319184064865
1782942014821937000,7.17893701171875,-0.21358691155910492,0.029162313789129257,-0.12414952367544174
1782942014831922000,7.188921875,-0.1816372275352478,0.10363761335611343,-0.16591081023216248
1782942014841906700,7.19890673828125,-0.14251069724559784,0.15070849657058716,-0.21438224613666534
1782942014851892700,7.208892822265625,-0.11286599189043045,0.1571192592382431,-0.27006736397743225
1782942014861877800,7.218877685546875,-0.10263612866401672,0.14552614092826843,-0.31671273708343506
1782942014871862800,7.22886279296875,-0.11048686504364014,0.11117695271968842,-0.35312506556510925
1782942014881847800,7.238847900390625,-0.12359332293272018,0.0567602775990963,-0.3848200738430023
1782942014891832800,7.248832763671875,-0.1496659517288208,0.020767923444509506,-0.38933202624320984
1782942014901817900,7.25881787109375,-0.17468726634979248,-0.0008243443444371223,-0.3815927505493164
1782942014911803000,7.268802978515625,-0.19036981463432312,-0.028313759714365005,-0.3726051151752472
1782942014921787600,7.27878759765625,-0.2115396112203598,-0.06671822816133499,-0.3743060827255249
1782942014931772700,7.288772705078125,-0.22504077851772308,-0.06365612894296646,-0.3681051731109619
1782942014941759000,7.298759033203125,-0.23267851769924164,-0.050838690251111984,-0.35346099734306335
1782942014951743700,7.30874365234375,-0.23146039247512817,-0.045959778130054474,-0.3364655077457428
1782942014961728800,7.318728759765625,-0.22197560966014862,-0.022925885394215584,-0.32420381903648376
1782942014971713800,7.3287138671875,-0.20375213027000427,-0.018104497343301773,-0.3413172960281372
1782942014981698800,7.33869873046875,-0.1761159598827362,-0.022720059379935265,-0.3837619423866272
1782942014991683800,7.348683837890625,-0.1310853660106659,-0.00409976951777935,-0.42732512950897217
1782942015001668600,7.358668701171875,-0.062203772366046906,0.016813233494758606,-0.4816237688064575
1782942015011653600,7.368653564453125,0.013140246272087097,0.03697842359542847,-0.5138429403305054
1782942015021639000,7.378638916015625,0.07985907793045044,0.0374586284160614,-0.5327085852622986
1782942015031624000,7.3886240234375,0.12731900811195374,0.025274135172367096,-0.5437143445014954
1782942015041609700,7.398609619140625,0.16318635642528534,0.016583479940891266,-0.5330329537391663
1782942015051594800,7.4085947265625,0.18173207342624664,0.01685751974582672,-0.48687297105789185
1782942015061579800,7.418579833984375,0.1860300600528717,0.017690563574433327,-0.40605291724205017
1782942015071564800,7.428564697265625,0.18387822806835175,0.012383682653307915,-0.2994106113910675
1782942015081549800,7.4385498046875,0.17794698476791382,0.02121906727552414,-0.18460282683372498
1782942015091534800,7.448534912109375,0.16945256292819977,0.05184701457619667,-0.08653086423873901
1782942015101520000,7.458519775390625,0.16146039962768555,0.061462707817554474,-0.03769437223672867
1782942015111505000,7.4685048828125,0.16988690197467804,0.016544770449399948,-0.03999188169836998
1782942015121489700,7.47848974609375,0.2046276479959488,-0.042697761207818985,-0.06651712208986282
1782942015131474700,7.488474609375,0.25692710280418396,-0.07730021327733994,-0.09551282227039337
1782942015141460700,7.498460693359375,0.3215186893939972,-0.08246150612831116,-0.10997775942087173
1782942015151445800,7.50844580078125,0.37959611415863037,-0.04826518893241882,-0.10647597163915634
1782942015161430800,7.5184306640625,0.4157320559024811,0.015113696455955505,-0.07749255001544952
1782942015171415800,7.528415771484375,0.43955403566360474,0.08037872612476349,-0.03029041551053524
1782942015181400800,7.53840087890625,0.45600730180740356,0.13060541450977325,0.024631019681692123
1782942015191385900,7.5483857421875,0.46229952573776245,0.18479780852794647,0.08801612257957458
1782942015201370600,7.55837060546875,0.46339666843414307,0.2227688878774643,0.14616745710372925
1782942015211355600,7.568355712890625,0.4542599022388458,0.23368065059185028,0.19762292504310608
1782942015221340700,7.578340576171875,0.43703386187553406,0.20427218079566956,0.24376682937145233
1782942015231326000,7.588325927734375,0.4117439389228821,0.13246136903762817,0.27662569284439087
1782942015241311700,7.598311767578125,0.389104962348938,0.021809201687574387,0.2981453537940979
1782942015251296800,7.608296875,0.3625260591506958,-0.08004525303840637,0.32481077313423157
1782942015261281800,7.61828173828125,0.33530959486961365,-0.13420619070529938,0.34043893218040466
1782942015271266800,7.628266845703125,0.30044057965278625,-0.1496485322713852,0.3269535005092621
1782942015281251600,7.63825146484375,0.26741841435432434,-0.12606081366539001,0.283817857503891
1782942015291236900,7.64823681640625,0.24843035638332367,-0.06976211816072464,0.22204793989658356
1782942015301222000,7.658221923828125,0.24251964688301086,0.010148941539227962,0.1591240018606186
1782942015311207000,7.66820703125,0.2458754926919937,0.08895161002874374,0.07490259408950806
1782942015321191700,7.678191650390625,0.2553921341896057,0.14082220196723938,-0.002927000168710947
1782942015331176700,7.6881767578125,0.26542824506759644,0.17963963747024536,-0.06050321087241173
1782942015341162800,7.698162841796875,0.269056111574173,0.19318769872188568,-0.10849965363740921
1782942015351147800,7.708147705078125,0.256352037191391,0.17780502140522003,-0.14451651275157928
1782942015361132800,7.7181328125,0.22914563119411469,0.12893755733966827,-0.15184718370437622
1782942015371117800,7.728117919921875,0.19536636769771576,0.08974674344062805,-0.13676197826862335
1782942015381102800,7.738102783203125,0.1619938760995865,0.1566881537437439,-0.10511846840381622
1782942015391087900,7.748087890625,0.15295857191085815,0.2674751281738281,-0.06807602941989899
1782942015401072600,7.75807275390625,0.1823142021894455,0.3189597427845001,-0.033182110637426376
1782942015411057700,7.7680576171875,0.1696556657552719,0.42257213592529297,0.16838482022285461
1782942015421042700,7.778042724609375,0.09970071166753769,0.13918840885162354,0.2964245080947876
1782942015431028700,7.78802880859375,0.06403698772192001,-0.2786828875541687,0.36266639828681946
1782942015441013800,7.798013671875,0.08520732074975967,-0.5584060549736023,0.31010958552360535
1782942015450998800,7.807998779296875,0.11450742185115814,-0.617453396320343,0.19547754526138306
1782942015460983800,7.81798388671875,0.10335148125886917,-0.5815852880477905,0.05943842977285385
1782942015470968800,7.82796875,0.04319547116756439,-0.49505117535591125,-0.06642362475395203
1782942015480953600,7.83795361328125,-0.03380454704165459,-0.3357754051685333,-0.17292746901512146
1782942015490938600,7.847938720703125,-0.07973609119653702,-0.13698826730251312,-0.23049728572368622
1782942015500924000,7.857923828125,-0.0836314707994461,0.009917479008436203,-0.26774659752845764
