time,seconds_elapsed,z,y,x
1782943313576810200,0.064810302734375,-0.09225041367411613,-0.00032532296422868964,0.009888933338207425
1782943313586795300,0.074795166015625,-0.09464636889994144,0.0039429654721170665,0.008003459801612189
1782943313596780300,0.0847802734375,-0.09015899435281753,0.0016283866531215606,0.006040921848767903
1782943313606764300,0.094764404296875,-0.09075871381163597,0.007061079226341098,0.00028182517415261825
1782943313616749300,0.104749267578125,-0.09614917467832565,0.0052531530215404925,-0.00007606661911704577
1782943313626734300,0.114734375,-0.09105681997537612,0.0015980463137850165,-0.006024757306900574
1782943313636719400,0.12471923828125,-0.10242869333922862,0.0012771072637289761,-0.004067402419249993
1782943313646704400,0.134704345703125,-0.08656769186258316,0.006541092206537723,-0.006825033989251824
1782943313656689400,0.144689453125,-0.0913590177923441,0.005608450998924672,-0.0014145304149540607
1782943313666673400,0.15467333984375,-0.08776888434588909,0.007304587392322719,-0.0066102929767395836
1782943313676658400,0.164658447265625,-0.10737082591652869,0.005478833269886672,0.005074058711144607
1782943313686643500,0.1746435546875,-0.0924082345843315,0.006873191971424966,0.0003555731136642862
1782943313696628200,0.184628173828125,-0.10019055902361869,-0.0028032208524644375,-0.00008448510430171154
1782943313706613200,0.19461328125,-0.10228665452003478,0.006834960586577654,-0.002410968990222318
1782943313716597200,0.20459716796875,-0.094652798640728,0.0007461969911120831,0.002238709704345092
1782943313726582300,0.214582275390625,-0.10961129831969738,0.00876751781804487,0.004324670824169879
1782943313736567300,0.2245673828125,-0.09479425293803215,0.006397482484765351,0.010622991225309669
1782943313746552600,0.234552490234375,-0.09704057056009768,0.009462021154537797,0.00794578963899985
1782943313756537300,0.244537353515625,-0.09838789351582526,0.0030658173114061354,0.007188270961208036
1782943313766521300,0.254521240234375,-0.1075187099546194,0.007370547034312039,0.0032318866018031258
1782943313776506400,0.26450634765625,-0.1031792194455862,0.015722780316043645,-0.0021116926410584707
1782943313786491400,0.274491455078125,-0.09390110349059104,0.01584911010945216,0.0027253641350602265
1782943313796476400,0.284476318359375,-0.09360065923929214,0.0032418131991289556,-0.010604575360851595
1782943313806461400,0.29446142578125,-0.0900076031833887,0.005567497934028506,-0.00909398927645525
1782943313816446200,0.3044462890625,-0.09718903912007808,0.0038604200215078886,0.0007077669601538218
1782943313826430200,0.31443017578125,-0.09330079950988292,0.007406166336964815,-0.0029652978126890957
1782943313836415200,0.324415283203125,-0.09419745608866215,0.010800868542864918,-0.0050689955186040605
1782943313846400300,0.334400146484375,-0.09135317257344722,0.010578823290020228,-0.0032373082706588317
1782943313856385500,0.344385498046875,-0.09449205512106418,0.007437273861281573,0.002830320063588442
1782943313866370600,0.35437060546875,-0.1099018056988716,0.0031229725924320517,-0.0007980310679820831
1782943313876354600,0.3643544921875,-0.10331892017722129,0.010809983431082219,0.0008099966420559212
1782943313886339300,0.37433935546875,-0.08910217877626418,0.011662673003971577,-0.005694254702411126
1782943313896324400,0.384324462890625,-0.09478782319724559,0.009987378469202666,0.0032978999010752886
1782943313906309400,0.394309326171875,-0.08925473898947238,0.008640311241801828,-0.0008885280712507664
1782943313916294400,0.40429443359375,-0.08910451686382294,0.008760448756441474,0.003621622279973235
1782943313926279400,0.414279541015625,-0.09972703316509723,0.007500804084166884,0.003709179549128748
1782943313936263400,0.424263427734375,-0.0994277579575777,0.0034632008648477495,0.004913217010069638
1782943313946248200,0.434248291015625,-0.0895545987188816,0.0019245200554840265,0.00412123779860558
1782943313956233200,0.444233154296875,-0.08476327278912067,0.008849497013073413,0.003324816449108766
1782943313966218500,0.454218505859375,-0.08895078760683536,0.0017379114422015846,0.0076711876484332605
1782943313976203500,0.46420361328125,-0.09328852455019951,0.0045008185505867005,0.00255156591264531
1782943313986187500,0.4741875,-0.09598550854921341,0.012268310746923089,-0.00360224286771263
1782943313996172500,0.484172607421875,-0.09164718708395958,0.009782631411030888,-0.0008556167489150539
1782943314006157300,0.4941572265625,-0.0922474910646677,0.004477675137016922,0.003079930318437982
1782943314016142300,0.504142333984375,-0.10317103613913059,0.006416917837597429,-0.004056085299147525
1782943314026127400,0.51412744140625,-0.09209726893901825,0.014328275484032928,-0.0020598448644566815
1782943314036112400,0.5241123046875,-0.10137596941590309,0.010348192871920764,0.0016863330936583223
1782943314046096400,0.534096435546875,-0.09389233566224575,0.0045788522228598595,-0.0012735841493704356
1782943314056081400,0.544081298828125,-0.09987900885641575,0.009862564779445528,0.009223073857597774
1782943314066066200,0.554066162109375,-0.10032616810202598,0.009053422087337821,0.003522320915741147
1782943314076051500,0.564051513671875,-0.09703355629742146,0.0021357151207514104,0.0079142996638373
1782943314086036500,0.574036376953125,-0.10092588756084442,0.011770480760000646,0.01015602330917609
1782943314096020500,0.5840205078125,-0.09733809220194815,0.004426511205360293,0.005239260351861594
1782943314106005500,0.594005615234375,-0.10676409219503402,0.007373579241614788,0.004329375540395267
1782943314115990500,0.603990478515625,-0.10616671082377434,0.000686922818236053,0.004886907816812163
1782943314125975300,0.613975341796875,-0.10287643710672854,0.008971077566128223,0.0038174702207033986
1782943314135960300,0.623960205078125,-0.10721534309387207,0.011060560658667236,0.0066204193618206765
1782943314145945300,0.6339453125,-0.09539338787496089,0.010266396339982747,-0.0008119351541041396
1782943314155929300,0.643929443359375,-0.09270166457295417,0.007335311324149369,0.0022426483772345815
1782943314165914400,0.653914306640625,-0.09613982232809067,0.006301018106658012,-0.0076068308750633145
1782943314175899400,0.6638994140625,-0.09165127873718738,0.013497414150461554,-0.0007241643974615726
1782943314185884400,0.673884521484375,-0.08955226063132285,0.007337941672652959,0.00028971964459633456
1782943314195869400,0.683869384765625,-0.09404138874411583,0.005232895684801042,-0.003267924887919798
1782943314205853400,0.693853515625,-0.09314180955588817,0.00485058183632791,0.002856410061137285
1782943314215838500,0.70383837890625,-0.10077157378196716,0.002543565269280225,-0.002161198905168567
1782943314225823500,0.713823486328125,-0.10570552305281161,0.0005627119166776537,-0.0011695403946505394
1782943314235808300,0.723808349609375,-0.10106383472681045,0.00401677962699905,0.0008398266663833055
1782943314245793300,0.733793212890625,-0.10121522589623927,0.009031867842655628,-0.0033934646634617817
1782943314255778300,0.7437783203125,-0.09897299992740154,0.004941347126010805,0.006785962354188086
1782943314265762300,0.75376220703125,-0.09328560194075107,0.006688464787974953,0.0018350528153881895
1782943314275747300,0.763747314453125,-0.10211714317202568,0.006381225469708442,0.000582239742699312
1782943314285732400,0.773732421875,-0.10181728344261645,0.003505249908287078,-0.000437650490103988
1782943314295717400,0.78371728515625,-0.10451017578840255,0.004978756526950747,-0.002778275924164336
1782943314305702400,0.793702392578125,-0.0997241105556488,0.012553484363853932,-0.0014711445565742905
1782943314315686400,0.803686279296875,-0.1001771150201559,0.015570220102835446,-0.0035192122182692398
1782943314325671400,0.81367138671875,-0.09045125529766082,0.0012137414376251399,0.01527141296948539
1782943314335656400,0.823656494140625,-0.10257190120220183,0.0034494280678220093,0.007940260655578459
1782943314345641500,0.833641357421875,-0.10301906044781207,0.006517035477515309,0.0021419941644882784
1782943314355626200,0.843626220703125,-0.09269348126649855,0.004093699054419994,0.0007058798220998142
1782943314365611300,0.853611328125,-0.09553776478171348,0.003255184137355536,-0.0072792508800223
1782943314375595300,0.86359521484375,-0.10137363132834434,0.0013149367897771298,-0.011873362320807063
1782943314385580300,0.873580322265625,-0.09897592253684998,0.0029935557927936313,0.011062453504942822
1782943314395565300,0.8835654296875,-0.11288462090194225,0.0076565243688412,0.018543815386411734
1782943314405550600,0.893550537109375,-0.10779518880844116,0.0010055603133514524,0.0007806301253207493
1782943314415535400,0.903535400390625,-0.04331541011333465,-0.000012494155392050743,-0.03733972867063712
1782943314425519400,0.913519287109375,-0.033899346992373465,0.015023856532759963,-0.0057100322268554
1782943314435504400,0.92350439453125,-0.12128361593484878,0.013843633772246539,0.004725279522803612
1782943314445489400,0.933489501953125,-0.14971768325865267,0.0018414448819123208,0.02618325618971139
1782943314455474400,0.943474365234375,-0.05259878676533699,0.008246599216479808,-0.004582801170548191
1782943314465459500,0.95345947265625,-0.11499942109882831,0.007840867959801108,0.015350340549257815
1782943314475444200,0.9634443359375,-0.07594342199563979,0.01004822354465723,-0.003136601542274002
1782943314485428200,0.97342822265625,-0.10647066220641135,0.0021863127968274054,0.013402792386279906
1782943314495413200,0.983413330078125,-0.10706804357767105,0.004973769824579358,0.004632104221970076
1782943314505398300,0.993398193359375,-0.09614449850320815,0.006314991833083331,-0.00026157582892337813
1782943314515383600,1.003383544921875,-0.09554711713194847,0.004111362575273961,0.00013223209452116862
1782943314525368600,1.01336865234375,-0.09884206702411175,0.006170980252511799,-0.00564066591822775
1782943314535353300,1.023353271484375,-0.1120107606768608,0.009774301974102855,0.006147823139210231
1782943314545337300,1.03333740234375,-0.10842588792741298,0.008391944237612187,-0.005639396409748587
1782943314555322400,1.043322265625,-0.09226678028702735,0.013682068268675357,-0.00765044168792665
1782943314565307400,1.053307373046875,-0.10169511836767196,0.006678582714777439,0.009320827152137645
1782943314575292400,1.06329248046875,-0.08972703267633915,0.0067995056807063515,0.0021352653128909878
1782943314585277400,1.07327734375,-0.10469079305231571,0.002149104325287044,-0.005192212047963403
1782943314595261400,1.083261474609375,-0.09032558309137821,0.012767474174406379,-0.008418578799499664
1782943314605246200,1.09324609375,-0.09032266048192977,0.012644286186154931,-0.0001340975413331762
1782943314615231200,1.103231201171875,-0.0951058031052351,0.013781747517175971,-0.0007864742025732994
1782943314625216500,1.113216552734375,-0.09570376899838447,0.0071729786355979736,-0.004021857660915703
1782943314635201500,1.123201416015625,-0.10408522837460041,0.015177932849619536,-0.007678172228357288
1782943314645186300,1.133186279296875,-0.09974456882178782,0.003294219239801168,-0.0018110337606281972
1782943314655170600,1.143170654296875,-0.09510404953956604,0.009201561853755265,0.0007756491311709396
1782943314665155300,1.1531552734375,-0.10273848994076251,0.006319211350474506,0.0013676556409918702
1782943314675140400,1.163140380859375,-0.10004735116064548,0.009259794847015291,0.005238695237925276
1782943314685125400,1.17312548828125,-0.09406360057592392,0.008712938086595385,0.010630398213630541
1782943314695110400,1.1831103515625,-0.0954109235316515,0.004398527219891548,0.0050511687426129355
1782943314705095200,1.19309521484375,-0.09361468776464461,0.00497904878789559,0.002406561101519037
1782943314715079400,1.203079345703125,-0.09211538911759853,0.004713949844613671,-0.0009047668199986218
1782943314725064200,1.213064208984375,-0.09884791224300861,0.012173654733411967,-0.000943797355866991
1782943314735049500,1.223049560546875,-0.09585632921159266,0.015648399905581027,0.003528649050183594
1782943314745034500,1.233034423828125,-0.09510755667090415,0.01487496784767136,0.001470515510556288
1782943314755019500,1.24301953125,-0.10079144752621651,0.006852532775886357,0.00764910596407717
1782943314765003500,1.25300341796875,-0.09390811775326728,-0.00032627281229943037,0.008544255572359542
1782943314774988300,1.26298828125,-0.09376023371517658,0.009930570248048751,-0.0001873803648399189
1782943314784973300,1.272973388671875,-0.09630465750098229,0.015337105466704814,0.008161142572865356
1782943314794958300,1.282958251953125,-0.09076865068376064,0.0065327445033006365,-0.00008392912351991981
1782943314804943400,1.292943359375,-0.09077157329320908,0.002611607270501554,-0.001014561037137173
1782943314814928400,1.302928466796875,-0.08897767561376094,0.005821874553896486,-0.00009934588836040347
1782943314824912400,1.312912353515625,-0.09062485829889774,0.01334158426793292,0.005504100141883827
1782943314834897200,1.322897216796875,-0.0942214214861393,0.012202113642916082,0.011479185646248514
1782943314844882400,1.33288232421875,-0.09841419700086117,0.008580032421927898,0.001906662455096375
1782943314854867500,1.342867431640625,-0.09871230316460132,0.010490359555277972,0.0019322215880383737
1782943314864852500,1.3528525390625,-0.10200433044731616,0.010785068185534328,-0.009497848236456047
1782943314874836500,1.36283642578125,-0.10515022725760936,0.006167491387482732,-0.0021054067474557086
1782943314884821500,1.372821533203125,-0.1027566101193428,0.009468706623651086,-0.00187149067701539
1782943314894806300,1.38280615234375,-0.09976327352225779,0.01303757808636874,-0.005910470719379372
1782943314904791300,1.392791259765625,-0.10290566320121287,0.007953717217128724,0.000980704433307983
1782943314914776300,1.4027763671875,-0.10395312642753124,0.0028628603515215216,0.0006158120770938695
1782943314924761300,1.41276123046875,-0.09826689748466014,0.000004438713099807501,0.005195922391989734
1782943314934745300,1.422745361328125,-0.08719546837210655,0.015499986144527793,0.012375625312607734
1782943314944730400,1.43273046875,-0.08540390878021717,0.011012228004913777,0.008424574715446215
1782943314954715400,1.44271533203125,-0.1080021095573902,0.01084348384188488,0.0075118506345665075
1782943314964700400,1.452700439453125,-0.09259235897958278,0.0028870084120891986,0.006869461077800952
1782943314974685400,1.462685546875,-0.10067045149505138,0.007147953792195767,-0.0007519348954432644
1782943314984669400,1.47266943359375,-0.10276245533823966,0.009704634271375835,-0.0001465186314890161
1782943314994654500,1.482654541015625,-0.10500994200408457,0.006240775819402188,0.006181771074584685
1782943315004639500,1.492639404296875,-0.10381225665211677,0.015218045664299278,0.0008832787906867452
1782943315014624300,1.502624267578125,-0.09348843103647231,0.00252381938919425,0.0019386581786908208
1782943315024609300,1.512609375,-0.08600771989226341,0.007823788960836827,0.0042061578693916085
1782943315034594300,1.52259423828125,-0.09902794498503208,0.009375055257137865,0.003360991732543334
1782943315044578300,1.532578369140625,-0.09409341119229793,0.011777933414094149,0.00203492162739858
1782943315054563300,1.542563232421875,-0.10561667572557926,0.013760905658546834,-0.008260575226193759
1782943315064548600,1.552548583984375,-0.0963385597705841,0.01210508300922811,-0.005862412060261704
1782943315074533400,1.562533447265625,-0.09139642719328403,0.01029396020034328,0.0013194097522064112
1782943315084518400,1.572518310546875,-0.09843114813566207,0.00959916460290551,0.005393040982843376
1782943315094503400,1.58250341796875,-0.09917699806690215,0.010402863934915511,0.004887242318596691
1782943315104487400,1.5924873046875,-0.09813011936247348,0.009980400739144532,-0.003196213641867507
1782943315114472400,1.602472412109375,-0.09408931953907013,0.011743209160584956,0.0012824113432201556
1782943315124457500,1.61245751953125,-0.09588672434985637,0.015421678477618843,0.00044832828938961026
1782943315134442200,1.622442138671875,-0.10097674096524714,0.007717679971549659,0.0024414474685210733
1782943315144427300,1.63242724609375,-0.10531740051805973,0.008532868811953812,0.005635861878946889
1782943315154412300,1.642412353515625,-0.10651450134813785,0.009431607749965041,-0.012816733843344263
1782943315164396300,1.652396240234375,-0.10217734892666339,0.005640143045131117,0.006843908794724848
1782943315174381300,1.66238134765625,-0.09888532164394855,0.008625223270524294,0.005892277475562878
1782943315184366600,1.67236669921875,-0.09619359834194183,0.009609430268593133,0.0004795043123653158
1782943315194351400,1.682351318359375,-0.09051146105229854,0.015733776634093373,-0.0025946424359688533
1782943315204336400,1.69233642578125,-0.09484861347377299,0.019094466972537336,-0.0012064303474267945
1782943315214320400,1.7023203125,-0.1003822822034359,0.0062667870434932405,0.0030968015381367875
1782943315224305400,1.712305419921875,-0.10262801530361175,-0.0023678251098841426,0.003391633465979248
1782943315234290400,1.72229052734375,-0.09305237770676612,0.00919836524967104,0.006949207216547802
1782943315244275500,1.732275390625,-0.09709317753016948,0.018195855898689477,0.0017286618399550205
1782943315254260200,1.74226025390625,-0.09290215558111667,0.007093593256454914,-0.0051342918652459045
1782943315264245200,1.752245361328125,-0.0951449660718441,0.0013311755385249852,0.005087068889767397
1782943315274229200,1.762229248046875,-0.09619418286383151,0.01484533989438787,0.004914107492635957
1782943315284214300,1.77221435546875,-0.09289923297166824,0.011742003584187477,-0.010961596079508308
1782943315294199600,1.782199462890625,-0.10367314044237136,0.004586852866224944,-0.0009026273785508237
1782943315304184300,1.792184326171875,-0.09784078102707862,0.003499349890463054,0.005788086448726244
1782943315314169300,1.80216943359375,-0.09888999781906604,0.01644603482298553,-0.0039194065000163385
1782943315324154400,1.812154296875,-0.09559972410202026,0.008425572512578219,0.0029903454889776185
1782943315334138400,1.822138427734375,-0.10008826769292355,0.0031784656393341717,0.004056933540874161
1782943315344123400,1.832123291015625,-0.10397767634689807,0.004922368430905044,-0.00197035707476316
1782943315354108400,1.8421083984375,-0.09829203192591666,0.015257099033053964,-0.0016423991954536176
1782943315364093200,1.85209326171875,-0.09694646253585815,0.006921031434834003,-0.0061346211643423885
1782943315374078200,1.862078125,-0.10681962177455424,0.014148991660680621,0.01072750876242062
1782943315384063500,1.8720634765625,-0.0885655876815319,0.01016454340070486,0.007817767928715328
1782943315394047200,1.882047119140625,-0.09425181662440299,0.012267927154432982,0.0018466736128786578
1782943315404032500,1.892032470703125,-0.10547989760339259,0.015332721552532165,0.005006213072745595
1782943315414017500,1.902017578125,-0.07570084541141986,0.014366470336262135,0.0010123371140100062
1782943315424002300,1.912002197265625,-0.09021920010745525,0.006882398191187531,0.003618532990454696
1782943315433987300,1.9219873046875,-0.07929740859866141,0.0063327466854825615,0.006280740220320876
1782943315443971300,1.931971435546875,-0.09052081340253353,0.010559954192768782,0.002349430936668068
1782943315453956400,1.941956298828125,-0.08723053968548775,0.01062226057294756,-0.0017814423399628138
1782943315463941400,1.95194140625,-0.10144318943321705,0.013619524426478891,0.0003291977050364949
1782943315473923300,1.96192333984375,-0.09201718944013118,0.009789353412762283,-0.004080700292240363
1782943315483908000,1.971908203125,-0.08797638961672782,0.013375358673371375,-0.0019527620525681413
1782943315493893000,1.98189306640625,-0.10264029026329517,0.012313812122773379,-0.0011303488869336433
1782943315503877000,1.991877197265625,-0.1053361052185297,0.002666954186931252,0.004539408411749173
1782943315513862100,2.001862060546875,-0.10204466245770454,0.006140749511029571,0.007623660995566751
1782943315523847200,2.01184716796875,-0.09875205065310001,0.012384959396533668,-0.0008051606367342174
1782943315533832200,2.021832275390625,-0.09216799608767032,0.025125600362941623,0.005101976481243036
1782943315543817000,2.03181689453125,-0.09710369892418384,0.008121401934232563,-0.010225849700463004
1782943315553802000,2.041802001953125,-0.08094283771812916,0.006333057212736457,-0.003872761196561623
1782943315563786000,2.051785888671875,-0.09276420841515064,0.015767879833094776,-0.0030702126420219427
1782943315573771300,2.061771240234375,-0.09875029708743095,0.01445946411564946,-0.008966335175640414
1782943315583756300,2.07175634765625,-0.0996498762756586,0.009707958739623428,-0.0007407992967870086
1782943315593741000,2.081740966796875,-0.09815408475995063,0.011407565731741487,0.0024054377235122955
1782943315603726000,2.09172607421875,-0.10384089822471142,0.002902388644311577,0.004170196073444094
1782943315613711000,2.101711181640625,-0.09561083001792431,0.005435359454341233,0.006522727716073859
1782943315623695000,2.111695068359375,-0.08603460789918899,0.005759074983373284,0.003367286759300623
1782943315633680100,2.12168017578125,-0.09920271703004836,0.007552205477841198,-0.004206278883689083
1782943315643665200,2.1316650390625,-0.09621171852052211,0.0020793635573238133,0.003063486073713284
1782943315653650000,2.14164990234375,-0.08963234013020992,0.007047160298842937,0.005809085854270961
1782943315663635000,2.151635009765625,-0.11028232944905757,0.011701671573799102,0.0017595067860791459
1782943315673620200,2.1616201171875,-0.08439268591105938,0.010851137425377964,0.005763831073592882
1782943315683604200,2.171604248046875,-0.09172317492961883,0.008973032061196862,0.005177539635216817
1782943315693589200,2.18158935546875,-0.10414309604167937,0.006724084090627729,0.0033998533050529655
1782943315703574300,2.19157421875,-0.1001034652620554,0.006465853279549628,-0.001748898627096787
1782943315713559000,2.20155908203125,-0.08589373812377453,0.013140070346463471,0.004163654451514594
1782943315723544000,2.2115439453125,-0.09023264411091804,0.0033885647260583937,-0.0012131706154672429
1782943315733529000,2.221529052734375,-0.09486731817424297,0.0057741446883417666,-0.005865336952998768
1782943315743513000,2.23151318359375,-0.09442015892863273,0.011677541779540479,-0.0004200246435124427
1782943315753498000,2.241498046875,-0.09217617939412594,0.014861889170389622,0.004105549322417937
1782943315763483100,2.251483154296875,-0.08933189587891101,0.003438924940116703,-0.0030723383837379515
1782943315773468000,2.261468017578125,-0.09037702101767063,0.010817052492685615,-0.005432386612542904
1782943315783453200,2.271453125,-0.10055413163900374,0.008640037247166037,0.0014431297467090189
1782943315793438200,2.281438232421875,-0.10863514676392078,0.005514690034557133,0.002407613697578199
1782943315803422200,2.291422119140625,-0.11147533862590789,0.01077820005333051,0.006389342560793739
1782943315813407200,2.3014072265625,-0.1020464160233736,0.005637311767227948,-0.004550317964830901
1782943315823392300,2.311392333984375,-0.09875380421876907,0.010720058391615748,-0.001983883276616689
1782943315833377000,2.321376953125,-0.10159867225587367,0.01183315246636048,-0.0012019368353998288
1782943315843362000,2.331362060546875,-0.10519055926799774,0.01065519472816959,0.003446334211726207
1782943315853347000,2.34134716796875,-0.10159633416831493,0.00934195670513436,-0.0003599718692130409
1782943315863331000,2.3513310546875,-0.09695756845176219,0.006636953796446323,0.0011586479662335477
1782943315873316000,2.361316162109375,-0.08588204768598079,0.009385010395571589,-0.0017311392081202938
1782943315883301000,2.371301025390625,-0.09590835165977478,0.002680672185029834,0.0017813441585516556
1782943315893286100,2.3812861328125,-0.09964636914432048,0.007650898345652967,-0.003088554299599491
1782943315903271200,2.391271240234375,-0.08991817133426666,0.015369235904328524,-0.0026299055455951017
1782943315913256200,2.401256103515625,-0.09724573774337768,0.006808182177506387,-0.0017165535603417084
1782943315923240200,2.411240234375,-0.10353051710128784,0.01397542519206181,0.0012213836046750656
1782943315933225200,2.42122509765625,-0.09859364522099494,0.0029492965259589254,-0.0028362235063454136
1782943315943210200,2.431210205078125,-0.09619885903894901,0.00588988002249971,-0.0006980492837377824
1782943315953195000,2.441195068359375,-0.09500234273076057,0.007265424425713717,-0.0025246482229675164
1782943315963180000,2.451179931640625,-0.09664601828455924,0.010606058356817811,0.008226782554446253
1782943315973165000,2.4611650390625,-0.08542202895879746,0.005007927822507917,0.00230654849287821
1782943315983149000,2.471149169921875,-0.09529986437261104,0.012695486650429666,0.0018955770887900143
1782943315993134000,2.481134033203125,-0.09934183323979377,0.009322320422902703,-0.0015370619577239266
1782943316003119000,2.491119140625,-0.08856734124720096,0.01019066422265023,0.0004834041693480685
1782943316013104000,2.501104248046875,-0.09814882406294345,0.007253587857447564,-0.0031440952955628745
1782943316023089200,2.511089111328125,-0.09336100526452064,0.006970715795457363,-0.005481972791755106
1782943316033074200,2.52107421875,-0.09949731606245041,0.007756020954251289,-0.00226908429301111
1782943316043058200,2.53105810546875,-0.09770283386111259,0.006630597120895982,0.001986342378472909
1782943316053043200,2.541043212890625,-0.09830255331993103,0.009663936934806406,-0.009752574199484661
1782943316063028200,2.5510283203125,-0.10099661470949649,0.009379183442983776,-0.007141768363292794
1782943316073013000,2.561012939453125,-0.09830196879804134,0.016352018130291253,0.009809683814737945
1782943316082998000,2.570998046875,-0.0947089127421379,0.01149891554331407,0.002530157798435539
1782943316092983000,2.580983154296875,-0.08782382940351963,0.009343655471876263,-0.0048161658267839805
1782943316102967000,2.590967041015625,-0.08902151475548743,0.002929203586000949,0.0009426694112829863
1782943316112952300,2.600952392578125,-0.09246259512007236,0.008147486223559826,0.00900554609131068
1782943316122937000,2.61093701171875,-0.09440729944705963,0.011115396118443458,-0.0019441654708702116
1782943316132922000,2.620922119140625,-0.0969528922766447,0.008053907922282815,0.0030364108371199105
1782943316142907100,2.6309072265625,-0.09351064286828041,0.01715374470092356,-0.001814262330753263
1782943316152892200,2.64089208984375,-0.1035316861450672,0.02187766795028001,-0.003944614006509073
1782943316162876200,2.650876220703125,-0.1063771387040615,0.009855258255824445,-0.005374050871294457
1782943316172861200,2.660861083984375,-0.10398585965335369,0.011926968229655176,-0.010951741405774373
1782943316182846000,2.670845947265625,-0.10398702869713305,0.015577526626456529,-0.0037951978817465713
1782943316192831000,2.6808310546875,-0.10802724399864673,0.016480558147095144,-0.0031212943752878344
1782943316202816000,2.69081591796875,-0.10234159957766532,0.009768785548768937,-0.007621096862433478
1782943316212801300,2.70080126953125,-0.0992009634643793,0.009380535149853675,-0.0023411768482648767
1782943316222785300,2.710785400390625,-0.10338847828209399,0.0053963426182046526,-0.004998091415083035
1782943316232770300,2.720770263671875,-0.1108691894263029,0.0029463191175833343,-0.004854865285800769
1782943316242755000,2.730755126953125,-0.10368775348961352,0.0007246792790479957,0.0027809747713268733
1782943316252740000,2.740739990234375,-0.09665303254723548,0.011573076758068054,-0.008468480072543024
1782943316262725000,2.75072509765625,-0.09814765501916407,0.009105554133374244,0.0030537889468949288
1782943316272710100,2.760710205078125,-0.09216215086877345,0.004292765290476381,-0.003544031565694604
1782943316282694100,2.770694091796875,-0.09246376416385173,0.01366676110168919,-0.011505062156310305
1782943316292679200,2.78067919921875,-0.1060766944527626,0.006462291349284351,-0.005028911245032214
1782943316302664000,2.790663818359375,-0.109365799126029,0.0024580972092226147,0.00002684005786431953
1782943316312649000,2.80064892578125,-0.10532558382451533,0.011561952575854956,-0.006065238872694317
1782943316322634200,2.81063427734375,-0.09380115024745464,0.004743632596824318,-0.004095420654048211
1782943316332619300,2.820619384765625,-0.09619768999516963,0.007543876040913164,-0.005910466152802109
1782943316342603300,2.830603271484375,-0.08676818287074566,0.01600008115377277,0.0005963356250664219
1782943316352588300,2.84058837890625,-0.0988876597315073,0.009680248748790473,0.0019468209355487486
1782943316362573000,2.850572998046875,-0.10502280148565768,0.015354239264596253,0.003176835371251218
1782943316372558000,2.86055810546875,-0.10263093791306019,0.007949205438792704,-0.005115157906513195
1782943316382543000,2.870543212890625,-0.1030792662024498,0.010902191759180276,-0.01121642022394808
1782943316392528100,2.880528076171875,-0.09963526322841644,0.011556034291721879,0.0028964931930648163
1782943316402513200,2.89051318359375,-0.09738719204068183,0.008123557358700781,-0.003875640423526056
1782943316412497200,2.9004970703125,-0.10067921932339667,0.006915825536753982,0.00007108790825586766
1782943316422482000,2.91048193359375,-0.10441548324227333,0.01077955176020041,-0.0007403220894630066
1782943316432467200,2.92046728515625,-0.09244213685393333,0.0072298416556790465,0.0021658362643793222
1782943316442452200,2.9304521484375,-0.09977087230682373,0.01127796626901254,-0.0018632365886121988
1782943316452437200,2.940437255859375,-0.09572948796153068,0.008228899163007735,0.001872406275756657
1782943316462422000,2.950422119140625,-0.09992050991058349,0.00856943796267733,0.0039657161600422115
1782943316472406300,2.96040625,-0.09573007248342037,0.009899992446694523,0.0039904441759223115
1782943316482390500,2.970390625,-0.09497662376761436,0.002191445629671216,-0.004288226112676784
1782943316492375600,2.98037548828125,-0.0864478648751974,0.007027560549229383,-0.002102189593773801
1782943316502360600,2.990360595703125,-0.11023849030733107,0.011893339954689145,0.0071792508294689465
1782943316512345600,3.000345703125,-0.1035018755286932,0.009067834205180406,0.005174671824695542
1782943316522330600,3.01033056640625,-0.0867401258200407,0.006565605593286454,0.005533362768986262
1782943316532314600,3.020314697265625,-0.0975111106812954,-0.0007282229430042207,-0.002385979537793901
1782943316542299400,3.03029931640625,-0.11486848819553852,0.006287756766285747,-0.004311803351086564
1782943316552284400,3.040284423828125,-0.10080547605156898,0.006554554476309567,0.0007613260615849867
1782943316562269400,3.05026953125,-0.11262567770481109,0.007382383602578192,-0.0052947545404080296
1782943316572254700,3.060254638671875,-0.09002864597141742,0.0010311696786433457,-0.003363793327694293
1782943316582239700,3.07023974609375,-0.0948141266822815,0.00375113269444555,-0.005789141328074038
1782943316592223700,3.0802236328125,-0.10663666642308235,0.0031992892316542562,0.000011882234038785099
1782943316602208500,3.09020849609375,-0.10334405461847782,0.008554240393545479,0.0004949667429784313
1782943316612193500,3.100193603515625,-0.09346797277033328,0.008548285576794296,-0.000865170028549619
1782943316622178600,3.110178466796875,-0.09989712903499602,0.008470525899156927,-0.0008858337906654923
1782943316632163600,3.12016357421875,-0.10124094485938548,0.009858874985016882,-0.008905437584547326
1782943316642148600,3.130148681640625,-0.09286007000505923,0.00979810297479853,-0.013769488540512975
1782943316652132600,3.140132568359375,-0.09435527699887752,0.0037658736058510836,0.00650228543295525
1782943316662117400,3.150117431640625,-0.10153788197934627,0.007800535949412733,0.004139216413290705
1782943316672102400,3.160102294921875,-0.10228080930113792,0.005804119701497256,-0.0015675918100168927
1782943316682087400,3.17008740234375,-0.10422376006245612,0.005542783617880195,0.006143078465433791
1782943316692072700,3.18007275390625,-0.10197919600605965,0.007204104426223784,0.010249109561752992
1782943316702057700,3.1900576171875,-0.10257774642109871,0.007197492022346705,-0.005232610273722093
1782943316712042500,3.20004248046875,-0.09554302547872066,0.005942066867463291,-0.005242606511351187
1782943316722026500,3.210026611328125,-0.10317746587991714,-0.0023300321164540943,0.003477302455436438
1782943316732011500,3.220011474609375,-0.11245850444436073,0.013232534402888267,0.007989530599315184
1782943316741996500,3.22999658203125,-0.09540157118141651,0.012533994212094694,-0.003251384745072573
1782943316751981600,3.239981689453125,-0.09914251127541064,0.0032539785609580576,-0.006318250085960608
1782943316761966600,3.249966552734375,-0.10168810410499572,0.004072546668536961,0.000802977812802419
1782943316771951400,3.259951416015625,-0.10617957030534744,0.0007328991181217133,0.0031640124222962183
1782943316781935400,3.269935302734375,-0.10812602819800377,-0.0008865918424911796,-0.00615078228127677
1782943316791920400,3.27992041015625,-0.09316168330013752,0.007772643295489251,0.000999135139142163
1782943316801905700,3.28990576171875,-0.09869710559546947,0.004294701519235968,-0.0014306698406464419
1782943316811890700,3.299890625,-0.1024380456894636,0.00890151946125552,-0.01188582793509122
1782943316821875500,3.30987548828125,-0.10528116016089915,0.009936196271236986,-0.0031683141380781307
1782943316831860500,3.319860595703125,-0.10019348163306713,0.010392908796481788,-0.006459224892652127
1782943316841844500,3.329844482421875,-0.10647592290341854,0.0056599802567623555,0.004528777419880498
1782943316851829500,3.33982958984375,-0.09195698368549346,0.01267661755317822,0.002412045560812112
1782943316861814500,3.349814453125,-0.10138473724424839,0.004922642425540834,-0.01074073357017478
1782943316871799600,3.359799560546875,-0.10318038848936557,0.005981796089652925,0.0023838355297688394
1782943316881784300,3.369784423828125,-0.09898527488708496,-0.0024798341169953346,0.0034758868164848533
1782943316891769600,3.37976953125,-0.10467033478617667,0.006001286241412163,-0.002547990282648243
1782943316901754600,3.389754638671875,-0.09868483063578605,0.004196246113441884,-0.00949316521147266
1782943316911738600,3.399738525390625,-0.10930559337139129,0.0024218020531348882,0.00011509601334109902
1782943316921723600,3.4097236328125,-0.09838087925314902,0.0007317848732694984,-0.0028960639348020777
1782943316931708700,3.419708740234375,-0.10436521435976027,0.0035079350557178255,0.006139530234900303
1782943316941693400,3.429693359375,-0.10900047294497489,0.004135857695713639,0.0010989924841560423
1782943316951678500,3.439678466796875,-0.09179624016582966,0.01147569906450808,-0.005992721625755075
1782943316961663500,3.44966357421875,-0.09403963517844677,0.010075111551582812,-0.003155091613612603
1782943316971647500,3.4596474609375,-0.10182254413962363,0.00910701543809846,-0.00813987373926211
1782943316981632500,3.469632568359375,-0.09868307707011699,0.008947349630668759,0.00614740529739065
1782943316991617500,3.479617431640625,-0.10257014763653277,0.007284768447000533,-0.003151468034554273
1782943317001602600,3.4896025390625,-0.10511340237855911,0.007104041585233062,-0.0053677238784963265
1782943317011587600,3.499587646484375,-0.0995762265175581,0.013370719030871987,0.0037296720645972527
1782943317021572600,3.509572509765625,-0.09254209009706973,0.00821914495397359,0.00258756424121093
1782943317031556600,3.519556640625,-0.09553542669415474,0.005417842063959687,-0.009665848047391045
1782943317041541600,3.529541748046875,-0.1028653311908245,0.007109941603057086,-0.005026771803584415
1782943317051526700,3.539526611328125,-0.10466273600161075,0.007488620456028729,0.007545492609264328
1782943317061511400,3.549511474609375,-0.09658113635480403,0.012660561467520893,0.0021756589720724148
1782943317071496400,3.559496337890625,-0.10331249043643474,-0.0028463476081378755,-0.0028431281711673363
1782943317081481500,3.5694814453125,-0.0923866072744131,0.0067861895414069295,0.001603400625626091
1782943317091466500,3.579466552734375,-0.09507716153264045,0.012183098415192216,-0.0016478653884376398
1782943317101450500,3.589450439453125,-0.1013625254124403,-0.00019702040944248437,-0.006674294698727316
1782943317111435800,3.599435791015625,-0.09941665204167366,0.008446213441807775,-0.001642269048001617
1782943317121420500,3.609420654296875,-0.0889449423879385,0.009916359059605747,-0.0041975384548073634
1782943317131405600,3.619405517578125,-0.0965782137453556,0.00010753376139327883,0.0017099891055258921
1782943317141390600,3.629390625,-0.10346505064964294,0.012228179665934294,-0.0007773524644901044
1782943317151375600,3.639375732421875,-0.10122048659324645,0.005023746446147561,-0.013577772210561669
1782943317161359600,3.649359619140625,-0.10765431903302669,0.005749521703738719,-0.0009710369892418384
1782943317171344600,3.6593447265625,-0.10107084898948669,0.002787109967879951,-0.006007400888367555
1782943317181329400,3.669329345703125,-0.10511281785666941,0.0061632536037825045,-0.010259000768105033
1782943317191314400,3.679314453125,-0.10181903700828551,0.009242752380669116,0.0009628879321157
1782943317201299500,3.689299560546875,-0.10211480508446692,0.009247063229605555,-0.005271866855164989
1782943317211284700,3.69928466796875,-0.10360592042505741,0.005730579541251063,-0.0038957744626794007
1782943317221269500,3.70926953125,-0.10090952094793319,0.0060604508164338764,-0.006056884319591335
1782943317231253500,3.71925341796875,-0.10300386287868023,0.002621525876317173,-0.0016761233685421756
1782943317241238500,3.729238525390625,-0.0974672715395689,0.009491302047949284,-0.009247679717536084
1782943317251223600,3.7392236328125,-0.10075988334417342,0.003520758004672825,0.0015788255900843068
1782943317261208600,3.74920849609375,-0.10195523060858248,0.005533595664426684,0.012630839899403508
1782943317271193600,3.759193603515625,-0.0947743791937828,0.008750548416934907,0.008845316311588976
1782943317281178400,3.769178466796875,-0.09118366122543811,0.006685706575307994,-0.003281583520513959
1782943317291162400,3.779162353515625,-0.09042436729073523,0.006438855674769729,0.004638272526208311
1782943317301147400,3.7891474609375,-0.15381342813968657,0.020813344920706002,0.013619999350514262
1782943317311132400,3.79913232421875,-0.28983693256676196,0.1391634829532355,-0.014070349491987143
1782943317321117700,3.80911767578125,0.17502806560397147,0.14091555078495294,-0.0007435415264335461
1782943317331102700,3.819102783203125,-0.01816927841901779,0.0005770144366659223,-0.0226477549903444
1782943317341087500,3.82908740234375,-0.14699614934027194,-0.3083165921092033,0.015331646123586687
1782943317351072500,3.839072509765625,-0.16899170804917812,0.036317240055371076,0.02681319725685753
1782943317361056500,3.849056396484375,-0.145325001257658,0.021258038214594124,0.007942609017936047
1782943317371041500,3.85904150390625,-0.09745324301421641,-0.015016330813430248,-0.0036285817437223156
1782943317381026600,3.869026611328125,0.028993454772233963,0.03307869652556255,-0.038516430600080635
1782943317391011600,3.879011474609375,-0.2261392441600561,-0.011527100458182393,0.040530788930063136
1782943317400996400,3.888996337890625,-0.0049731122374534606,0.005355316488072276,-0.026964350964268666
1782943317410981600,3.898981689453125,-0.16553601463735101,0.011117405412439257,0.013177687526668886
1782943317420965400,3.90896533203125,-0.07036942125558852,0.014025602743029594,-0.010095432820403948
1782943317430950700,3.91895068359375,-0.07590718163847923,0.011244173597265034,-0.006403435018227901
1782943317440935700,3.928935791015625,-0.13052666057646273,0.007097374382428825,0.005355839361168909
1782943317450920700,3.938920654296875,-0.08189560839831829,0.005500588443968445,-0.010342299703962634
1782943317460905500,3.948905517578125,-0.12050269469022751,0.0005709500220604241,-0.005498688747826963
1782943317470890500,3.958890380859375,-0.08862813152372837,0.005738726315088569,-0.004714431618514936
1782943317480876000,3.9688759765625,-0.11331599805653095,0.0017459851508028804,0.004817960491648409
1782943317490860000,3.978860107421875,-0.09027063803374767,-0.0030714068019762632,-0.004940938417345751
1782943317500843800,3.98884375,-0.10463292538523673,-0.005586841955315321,0.003952824712428264
1782943317510829000,3.9988291015625,-0.09385551078319548,0.009526081100385636,-0.007243100712762679
1782943317520813800,4.008813720703125,-0.08742050929963588,0.011892243976145982,-0.00024356981477467341
1782943317530798800,4.018798828125,-0.10927110657989979,0.005304992806632072,0.0009916002866579218
1782943317540783900,4.028783935546875,-0.10582885717153549,-0.0012889438319951296,-0.0027320553123950956
1782943317550767900,4.038767822265625,-0.09131167151927948,0.007287800654303282,-0.003777639392169658
1782943317560753000,4.0487529296875,-0.09744856683909893,0.00737845634613186,-0.005277059053513221
1782943317570738000,4.058738037109375,-0.09056406802237034,-0.0018084376614540814,-0.0020879624223103747
1782943317580722700,4.06872265625,-0.09355915818512439,-0.0012391498735174536,0.0009619221010245383
1782943317590707700,4.078707763671875,-0.088020813280344,0.001821132746245712,0.004905517760803922
1782943317600693000,4.08869287109375,-0.09759995800852775,0.0028093583323061467,-0.006927605022804346
1782943317610676700,4.0986767578125,-0.09505378065705299,0.007656469569914042,0.004954345888190437
1782943317620662000,4.108662109375,-0.10328618695139884,0.010000822472665458,-0.002372674814937636
1782943317630647000,4.11864697265625,-0.10552958196401595,0.002327200838550925,-0.005223993142426479
1782943317640631800,4.1286318359375,-0.09983867684602737,0.004382398068998009,-0.0034322760036215186
1782943317650616800,4.138616943359375,-0.0884650499165058,0.011069547682721167,-0.0021985009915428235
1782943317660601900,4.148601806640625,-0.10447627351880073,0.006872388253826647,-0.003035572870192118
1782943317670587000,4.1585869140625,-0.09744505970776081,0.008574388132430612,-0.004463395449914969
1782943317680571000,4.16857080078125,-0.1008873091161251,0.004267904843855649,0.0010066791247809305
1782943317690556000,4.178555908203125,-0.10028817417919635,0.0064676433778367935,0.0030851544828270562
1782943317700540700,4.188540771484375,-0.10312895056307315,0.0036851913187652824,-0.00043431118048029016
1782943317710526000,4.19852587890625,-0.10507540845572948,0.008542111564334482,-0.004540262361697387
1782943317720511000,4.208510986328125,-0.09864040697216987,-0.0014906952154822646,0.0020049374810885636
1782943317730496000,4.21849609375,-0.09325111514925956,0.00633422625651583,0.006780940260842908
1782943317740481000,4.22848095703125,-0.09728723879754543,0.00811078920867294,-0.00824393005206948
1782943317750465000,4.238465087890625,-0.1043207906961441,-0.002805029217060655,-0.003558137722860556
1782943317760449800,4.24844970703125,-0.09564356324374675,0.0030913170788437125,-0.0034282026167027652
1782943317770434800,4.258434814453125,-0.09699030167758464,0.011170743034873157,0.0004729193079518154
1782943317780419800,4.268419921875,-0.10132686957716941,0.00925080782296136,-0.009795093600382096
1782943317790404900,4.27840478515625,-0.10102525628209114,0.01155252716038376,-0.0022532999187009407
1782943317800390000,4.288389892578125,-0.09099778326451778,0.0021962314026430247,-0.004444688466156367
1782943317810375000,4.298375,-0.08845569756627082,0.0049738794224336745,0.0024673490947578103
1782943317820359000,4.30835888671875,-0.09429214863479136,0.007537610696908086,-0.0054665263441624114
1782943317830344000,4.318343994140625,-0.0845657043904066,0.009924743295460938,-0.004526391383260488
1782943317840329000,4.328328857421875,-0.093694182741642,-0.0006865574920549988,-0.0025652313951053654
1782943317850314000,4.33831396484375,-0.10851005907952785,0.0010488879984244704,0.0020193792816833593
1782943317860298800,4.348298828125,-0.10671382331252098,0.004633285823836922,-0.004633673982904292
1782943317870283800,4.35828369140625,-0.10042670586705207,-0.0017645619871094823,0.005336547855520621
1782943317880267800,4.368267822265625,-0.1079062479674816,0.008160108243115246,-0.006560477327019907
1782943317890252800,4.378252685546875,-0.09907236864864825,-0.0028421098244376477,-0.010990082388476003
1782943317900237800,4.38823779296875,-0.09862053322792053,-0.004465619373042136,-0.004515146186749916
1782943317910222800,4.398222900390625,-0.09831775088906287,0.008257942594401537,-0.00046383410248672586
1782943317920208000,4.408207763671875,-0.09951543624103068,0.012887027167156338,-0.004692726676783059
1782943317930193000,4.41819287109375,-0.09562252045571804,0.000975347838178277,-0.00017254355531185863
1782943317940178000,4.428177978515625,-0.10220891310870647,0.007944876323547213,-0.012239639491576235
1782943317950162000,4.438161865234375,-0.10953940212726593,0.006367215210665017,0.003732551291561685
1782943317960147000,4.44814697265625,-0.09038520432412624,0.0015717062961310146,-0.009576208419003524
1782943317970132000,4.458132080078125,-0.09098141665160656,0.005381583440490067,-0.005963335701066535
1782943317980116700,4.46811669921875,-0.10639233627319335,0.000961374111752957,-0.0008927567217964678
1782943317990101800,4.478101806640625,-0.10878536888957023,0.003178703101351857,0.003251304829970468
1782943318000086800,4.488086669921875,-0.09696516723632811,-0.0015911416489630937,-0.0035601629998767747
1782943318010071800,4.49807177734375,-0.1086345622420311,0.0020558000186458227,0.0029615897519513963
1782943318020055800,4.508055908203125,-0.11147533862590789,-0.001783814676851034,0.00225531149598537
1782943318030041000,4.518041015625,-0.10309387924969196,-0.00321403014305979,-0.000925798191584181
1782943318040025900,4.52802587890625,-0.09651157824993133,0.007624229534436017,-0.006360780903301201
1782943318050011000,4.538010986328125,-0.09561258358359337,0.005926430906914174,0.00025290161541197446
1782943318059996000,4.547995849609375,-0.1045867481559515,0.009804806710220873,0.002066568007832393
1782943318069981000,4.55798095703125,-0.08947510374188422,0.0030045521108433603,-0.012156614550354425
1782943318079966000,4.567966064453125,-0.0987526351749897,0.0011922602581791578,-0.0037672983779571947
1782943318089950000,4.577949951171875,-0.09501169508099555,0.00839351514019072,-0.003611313231801614
1782943318099934700,4.587934814453125,-0.10100012184083461,0.006720065502636134,0.00769003391279839
1782943318109919700,4.597919677734375,-0.09935703080892562,0.007592482689302414,-0.004991220999590587
1782943318119904800,4.60790478515625,-0.10908230600953102,0.0036440921233966946,0.0043995957989711315
1782943318129890000,4.61789013671875,-0.09965513697266579,0.003641187780257314,-0.004751955183886457
1782943318139874800,4.627874755859375,-0.08992810820639133,0.0056913069767877454,0.0023538970492314546
1782943318149859000,4.637859130859375,-0.09995324313640594,-0.0061404572500847274,0.008704825562087353
1782943318159843800,4.64784375,-0.10039981786012649,0.001528232480585575,-0.009399799256038385
1782943318169828900,4.657828857421875,-0.09605623569786548,0.008987973902001976,-0.000478200554556679
1782943318179814000,4.66781396484375,-0.08572656486332415,0.004610781731083989,-0.011151864804467186
1782943318189799000,4.677798828125,-0.09874562091231345,0.0005779277521185576,-0.0070913990160799585
1782943318199783700,4.68778369140625,-0.0999421372205019,0.002386383679881692,-0.003783703806775156
1782943318209768700,4.697768798828125,-0.09799684837162494,0.0017898242925293742,-0.0030191834243945776
1782943318219752700,4.707752685546875,-0.09126432524621486,0.0018302293681539594,-0.0154890286423848
1782943318229737700,4.71773779296875,-0.09829670810103416,0.0011894472465850412,-0.00535387116636848
1782943318239723000,4.727722900390625,-0.10308569594323634,0.007792115180939436,0.0052052952918224035
1782943318249708000,4.7377080078125,-0.10518062239587306,0.010491419001203029,-0.0028492108520818873
1782943318259692800,4.74769287109375,-0.10068974071741103,-0.000049994887877255675,-0.00572580290143378
1782943318269677800,4.757677734375,-0.08467676354944706,0.002242518229782581,-0.006162703331222292
1782943318279662800,4.767662841796875,-0.0984434230953455,0.007035743855684996,-0.005997221987647935
1782943318289646800,4.777646728515625,-0.09380641094446182,-0.0021513510813005268,-0.005186844036390539
1782943318299631900,4.7876318359375,-0.09260404941737652,-0.002219539212994277,0.0005476513448636978
1782943318309617000,4.797616943359375,-0.10352817901372909,0.002289279980957508,0.0016297474931459873
1782943318319601700,4.8076015625,-0.10487725553512572,0.008529727006796746,0.002912252451200038
1782943318329587000,4.8175869140625,-0.09365560429692268,0.005726067762915045,-0.004264954834943637
1782943318339572000,4.827572021484375,-0.08961421995162963,0.00912058730572462,0.0007330155658419244
1782943318349557000,4.837556884765625,-0.10068681810796261,0.004453143483959138,-0.00824425884563243
1782943318359541000,4.847541015625,-0.09365618881881237,0.0000915872735902667,-0.00800076666267123
1782943318369526000,4.857526123046875,-0.09320902957320212,0.006310096462257206,-0.003200266479188576
1782943318379510800,4.8675107421875,-0.10263502956628799,0.006414250956475734,-0.009646460643620229
1782943318389495800,4.877495849609375,-0.10323299545943737,0.003971497446857392,-0.0166734275378054
1782943318399480800,4.887480712890625,-0.10652385369837283,0.004043704166542738,0.00020109379636123776
1782943318409465900,4.8974658203125,-0.09904080446660518,-0.002723524946067482,-0.005387901300133671
1782943318419451000,4.907450927734375,-0.10427870512008666,0.001639419503789395,-0.004936367273505311
1782943318429435000,4.917434814453125,-0.0979945102840662,0.0028460370808839797,-0.006246276261715684
1782943318439420000,4.927419921875,-0.11041501591801643,0.005295366461761295,0.00029252580632455646
1782943318449405000,4.937405029296875,-0.0978507178992033,-0.003330002939235419,0.00013307234473759308
1782943318459390000,4.947389892578125,-0.0948614729553461,-0.0013956008105538785,-0.0020390520965331235
1782943318469375000,4.957375,-0.09770575647056103,0.0014897636337205767,0.0008742872000555508
1782943318479360000,4.967360107421875,-0.0978548095524311,0.011046038942970335,-0.003413642085099127
1782943318489345000,4.977344970703125,-0.09232055630087851,0.00562092688800767,-0.0022464021037449126
1782943318499329000,4.9873291015625,-0.10368950705528258,0.012682133978512138,-0.003780698998935986
1782943318509314000,4.99731396484375,-0.10353577779829501,0.008156783774867653,0.00025842945718904955
1782943318519299000,5.007299072265625,-0.09979483770430088,0.002613762694969773,0.002295794203423429
1782943318529284400,5.017284423828125,-0.10099018496870994,0.0019477365342900155,-0.000029570871067699043
1782943318539269000,5.02726904296875,-0.09829553905725479,0.005804156234115362,-0.004674734362366143
1782943318549254100,5.037254150390625,-0.09515548746585846,0.006490969454497099,0.0012939830500050447
1782943318559239200,5.0472392578125,-0.10024491955935955,-0.0010515731458552182,0.0007496059410390444
1782943318569223200,5.05722314453125,-0.09859773687422276,0.0005410480741411447,0.0023012375635211354
1782943318579208200,5.067208251953125,-0.09635492638349533,0.004943429485242814,-0.005517541862057987
1782943318589193200,5.077193115234375,-0.1012929673075676,0.0043560397850349545,-0.010570263240940403
1782943318599178000,5.087177978515625,-0.10368599992394446,0.006408460536506027,0.0022172582076513208
1782943318609163000,5.0971630859375,-0.09919628728926182,-0.0002009293995797634,0.0010222785527119413
1782943318619148000,5.10714794921875,-0.10144026682376861,0.0020042342281900347,-0.013467080660990904
1782943318629133300,5.11713330078125,-0.09425415471196175,0.005302435523364693,0.001922953719482757
1782943318639117300,5.127117431640625,-0.10667582938969135,0.002376191079430282,0.000958319071563892
1782943318649102300,5.137102294921875,-0.11011632523238658,0.0012812354495748877,0.00018886221916181967
1782943318659087000,5.147087158203125,-0.08557342012822627,0.0025351262344978746,-0.004385875517583918
1782943318669072100,5.157072021484375,-0.09470131395757198,0.003121292091999203,-0.0038419527830556035
1782943318679057200,5.16705712890625,-0.11176175435185431,0.011131123410537838,-0.004136047208670061
1782943318689042200,5.177042236328125,-0.10038988098800182,0.00561316370666027,-0.009907374318840447
1782943318699027000,5.18702685546875,-0.09275894771814346,0.010456913943402469,-0.006277735412481706
1782943318709011200,5.19701123046875,-0.09665069445967674,-0.002960786034353077,0.005809202301991172
1782943318718996000,5.206995849609375,-0.09245908798873424,0.006852660640049725,-0.006496716491982806
1782943318728981000,5.21698095703125,-0.11101122824549674,0.011078717369865626,0.003637102976895403
1782943318738966300,5.22696630859375,-0.10427987416386604,-0.0026020722571760413,0.0035366200107964686
1782943318748951300,5.236951416015625,-0.09739888247847557,0.0031773513944819568,-0.011072057016927282
1782943318758936000,5.24693603515625,-0.10278875882327557,0.003448880078550428,-0.007502228856272995
1782943318768921000,5.256921142578125,-0.10787643735110759,-0.0005812339540570974,-0.0004916285749990493
1782943318778905000,5.266905029296875,-0.11894845098555087,0.004740764786303043,-0.0001655726751196198
1782943318788890000,5.27689013671875,-0.11056757613122463,0.006780965377017855,-0.005235048825980629
1782943318798875100,5.286875244140625,-0.10159107347130775,0.003559318183083087,-0.0039060949272941795
1782943318808860200,5.296860107421875,-0.10832418111860752,0.008617021697759629,0.0007077532604220322
1782943318818845000,5.306844970703125,-0.09859949043989182,0.009306666196044535,-0.003786626416223589
1782943318828830200,5.316830322265625,-0.09425766184329987,0.0059455557324923575,-0.0006416132386308162
1782943318838815200,5.326815185546875,-0.09844459213912486,-0.0027155060363933444,-0.0019510952518670818
1782943318848799200,5.33679931640625,-0.10727204171717167,0.0008296740234829485,0.0033144857096951454
1782943318858784300,5.3467841796875,-0.09455459896326064,0.004502517317328602,0.0022547452404047363
1782943318868769300,5.356769287109375,-0.09590075287520886,0.008058711961563676,0.0012131454992922953
1782943318878754000,5.366754150390625,-0.08482932376265526,0.008887728397920727,-0.007317497106245719
1782943318888739000,5.376739013671875,-0.10458148745894431,0.005438610857352614,0.0010432574086589738
1782943318898724000,5.38672412109375,-0.09425824636518955,0.005219926605373621,-0.01214328242803458
1782943318908709000,5.396709228515625,-0.10428221225142478,0.0023087883990257976,-0.004073222521971911
1782943318918693000,5.406693115234375,-0.09724690678715706,0.004740490791667253,0.0011656371127348392
1782943318928678100,5.41667822265625,-0.09829320096969604,-0.0014485000415705143,0.004747322391252964
1782943318938663000,5.426662841796875,-0.09500000464320182,0.008970273848529905,0.0005760919880587607
1782943318948648200,5.436648193359375,-0.09260404941737652,0.006662015172466635,-0.013592440056730992
1782943318958633200,5.44663330078125,-0.1021814405798912,0.013114351383317261,-0.004666539639467373
1782943318968618200,5.4566181640625,-0.09933774158656597,0.005585983438789844,-0.0025096766994101927
1782943318978603000,5.46660302734375,-0.08855915794074534,0.003758968941029161,-0.011859357769985217
1782943318988587300,5.476587158203125,-0.09679097971320151,0.0038017669031396506,0.0005238480608793907
1782943318998572000,5.486572021484375,-0.1056195983350277,0.002749353507068008,0.0054971406781347465
1782943319008557000,5.49655712890625,-0.09723404730558395,0.006096618108358234,-0.0013103039971436373
1782943319018542000,5.5065419921875,-0.11039923382699489,0.0073263060337863855,-0.005973210924398154
1782943319028527000,5.516527099609375,-0.10516367126107215,0.0030616525929421184,-0.006816972838738001
1782943319038512000,5.52651220703125,-0.102469025349617,0.004959248108882456,-0.0006292766301543452
1782943319048497200,5.5364970703125,-0.09678045831918716,0.0015700257956981658,-0.00744572202921845
1782943319058481200,5.546481201171875,-0.09947276614308356,0.004503394100163132,-0.0067842487460700795
1782943319068466200,5.556466064453125,-0.10366495713591575,0.004877835169434547,-0.006575713712058495
1782943319078451200,5.566451171875,-0.10980068341195583,0.004293203681893646,-0.008130261094123124
1782943319088436200,5.576436279296875,-0.09124737411141395,0.000329396351147443,-0.007833762365579604
1782943319098421000,5.5864208984375,-0.09349310721158981,-0.001415803348366171,-0.003986736115184612
1782943319108406000,5.596406005859375,-0.09513502919971942,-0.0020350129589438437,0.0008251234292401932
1782943319118391000,5.60639111328125,-0.09902560689747333,0.0004993278242647648,-0.006562881629948969
1782943319128375000,5.616375,-0.10411270090341568,0.0015135646344162522,-0.015881354711507447
1782943319138360000,5.626360107421875,-0.09468670091032981,0.007411554898135364,-0.005614670677157119
1782943319148345300,5.636345458984375,-0.10037176080942153,0.0052703964172862465,-0.002937366342858877
1782943319158330000,5.646330078125,-0.10860124449431896,0.009292601138073951,-0.003058825881616212
1782943319168315100,5.656315185546875,-0.10845219141244887,0.0024425708465278147,0.00298360522093717
1782943319178300200,5.666300048828125,-0.10919862586557864,0.005801251890975982,0.0007617781527340412
1782943319188285200,5.67628515625,-0.10172083733081817,0.005658117093238979,-0.007303491413779556
1782943319198269200,5.686269287109375,-0.10127426260709763,0.0014452669048681853,-0.008683714275399688
1782943319208254200,5.696254150390625,-0.09244856659471988,0.0009589812252670525,-0.00442650663878303
1782943319218239000,5.706239013671875,-0.10831015259325504,-0.0069442661799490445,-0.004741933830082416
1782943319228224000,5.71622412109375,-0.10382102448046207,0.00607809607097879,0.0008793743671267293
1782943319238209000,5.726208984375,-0.10232406392097472,0.004551909417007118,-0.0019936511853826232
1782943319248194300,5.7361943359375,-0.110852238291502,-0.0016287885119207202,0.0031810434721992347
1782943319258179000,5.746178955078125,-0.100229137468338,0.0018397095825523136,-0.011566051078948657
1782943319268164000,5.7561640625,-0.0984346552670002,-0.004533935368899256,-0.002281601281289477
1782943319278148000,5.766148193359375,-0.09843523978888988,-0.002121832725871354,-0.006232841391407419
1782943319288133000,5.776133056640625,-0.10262392365038395,0.006981237189471721,-0.004193360036611557
1782943319298118100,5.7861181640625,-0.103671971398592,0.007450863995216786,-0.008590448784665205
1782943319308103200,5.796103271484375,-0.09244915111660956,-0.003933978448063135,-0.009603868177486583
1782943319318088000,5.806087890625,-0.10531798503994941,-0.004071468956302851,-0.004109766556520481
1782943319328073000,5.816072998046875,-0.10411913064420222,0.004520929756853729,-0.0072727309493348
1782943319338058200,5.826058349609375,-0.09843348622322082,0.008300174300931393,-0.0026187014482798986
1782943319348042000,5.8360419921875,-0.10561842929124832,0.002395443769171834,-0.002108292824286036
1782943319358027300,5.84602734375,-0.10067688123583793,0.005527312054112553,-0.0005195554782520048
1782943319368012300,5.85601220703125,-0.09543956510424613,0.0050962636930868025,0.0010938071356737054
1782943319377997000,5.8659970703125,-0.100229137468338,0.0008128872854635119,0.0031864457331015725
1782943319387982000,5.875982177734375,-0.09185176974534988,0.003923895445466041,-0.001627541836327873
1782943319397967000,5.885967041015625,-0.09948387205898761,0.004834690147452056,-0.002337537286186125
1782943319407952100,5.8959521484375,-0.10232757105231284,0.004857212506514042,0.0034837230630684643
1782943319417936100,5.90593603515625,-0.1005301662415266,0.002243833404034376,-0.011264001675741746
1782943319427921200,5.915921142578125,-0.09978314726650714,0.0017037169116549194,0.00238794773259433
1782943319437906000,5.925906005859375,-0.09738543847501277,0.008161770477239042,0.00022102005624910815
1782943319447891200,5.93589111328125,-0.10501695626676082,0.007407097918726503,0.00913924634042196
1782943319457876200,5.945876220703125,-0.09514204346239566,0.0025214082363992927,-0.002854256919957697
1782943319467861200,5.955861328125,-0.10427110633552074,0.002719013167731464,-0.000856719577324111
1782943319477846300,5.96584619140625,-0.09978197822272777,0.00660095090130344,-0.0024124154535704293
1782943319487830500,5.97583056640625,-0.10082885692715644,0.006399966702796518,-0.004899923703656532
1782943319497815300,5.985815185546875,-0.09439034831225872,0.011338062425795941,0.0023581005836022084
1782943319507800300,5.99580029296875,-0.10621405709683894,0.0036603491384536026,-0.0021285729939118027
1782943319517785300,6.005785400390625,-0.10052490554451941,0.0068144292552024125,0.004728087967820465
1782943319527770400,6.015770263671875,-0.09663900402188301,0.00027457915768027303,-0.0010680219571571796
1782943319537755400,6.02575537109375,-0.0951408744186163,-0.0015846571092493831,0.001141418270219583
1782943319547740400,6.035740478515625,-0.09858195478320121,0.0010981157013215124,0.007311574255535379
1782943319557725400,6.045725341796875,-0.1147428159892559,0.006030822863150388,-0.008873679322970564
1782943319567709400,6.05570947265625,-0.10636018756926059,0.004134725184552371,0.0006643844761536457
1782943319577694500,6.065694580078125,-0.11653262201547622,-0.004209032529778779,0.00004657452150713652
1782943319587679500,6.075679443359375,-0.1111480063676834,0.007414897632692009,0.003598860175604932
1782943319597664300,6.085664306640625,-0.09753039990365504,0.006349697820283472,-0.0007913672901107929
1782943319607649300,6.095649169921875,-0.10156886163949966,0.010625859035830944,0.0028806928357342255
1782943319617634300,6.10563427734375,-0.10680793133676052,0.004406966254673898,-0.011961037179327104
1782943319627619300,6.115619384765625,-0.103065822198987,-0.004321059803199022,-0.00525181273111375
1782943319637603300,6.125603271484375,-0.10306465315520763,0.007606913073454052,-0.0022780507674673572
1782943319647588600,6.135588623046875,-0.10875088209807872,0.00864180907914415,-0.0016262403618078679
1782943319657573400,6.145573486328125,-0.10021978511810302,-0.0011654635827988385,-0.007112617617333308
1782943319667558400,6.155558349609375,-0.10590601406097412,0.0006042495034635066,0.004806009758950677
1782943319677543400,6.16554345703125,-0.10440729993581771,0.004401084503158926,0.002331742299639154
1782943319687528400,6.175528564453125,-0.09303016587495803,0.002269954225979745,0.0007827729917014948
1782943319697513200,6.18551318359375,-0.09722177234590053,0.008754950597416608,-0.0007883693321375176
1782943319707498200,6.195498291015625,-0.1018587844967842,0.010343681093584746,-0.006240081699658185
1782943319717482200,6.205482177734375,-0.10440087019503116,0.00023201865758746862,-0.0030005403727176596
1782943319727467300,6.21546728515625,-0.10290274059176445,0.008664970759022981,0.0017545999988098629
1782943319737452300,6.225452392578125,-0.08838847754895686,0.007960822811350226,-0.0015740968993282875
1782943319747437600,6.2354375,-0.08973404693901538,0.0022278321173042057,-0.004817483284324407
1782943319757422300,6.24542236328125,-0.10544248820245265,0.00014216668335720895,-0.0043595674659707585
1782943319767407400,6.255407470703125,-0.08883096061944962,0.00244989563645795,-0.011696983982238451
1782943319777392400,6.265392333984375,-0.0886784004062414,0.009239482711348682,-0.007862203008774667
1782943319787376400,6.27537646484375,-0.09720715929865836,-0.0023147249494679272,-0.00916600191660691
1782943319797361400,6.285361328125,-0.10065350036025046,-0.004196629705931991,0.00032194598034257065
1782943319807346400,6.295346435546875,-0.09990355877578258,0.00019698387682437897,-0.0037525597498402927
1782943319817331200,6.305331298828125,-0.10349661483168601,-0.0009320201531052589,-0.004733330398518592
1782943319827316200,6.315316162109375,-0.09571370587050915,0.008432312780618668,-0.0012378050165134482
1782943319837301200,6.32530126953125,-0.10424012667536735,0.0029333500381559133,-0.0027320553123950956
1782943319847286500,6.33528662109375,-0.10049451040625572,0.008099208368733525,-0.006404236452537589
1782943319857270500,6.3452705078125,-0.10483107830584049,0.002744896527659148,-0.005444200347922742
1782943319867255600,6.355255615234375,-0.09944529361426829,-0.006166030082758516,-0.003637246824079193
1782943319877240300,6.365240234375,-0.09585749825537204,-0.004809665304049849,-0.0029152481258846816
1782943319887225300,6.375225341796875,-0.09915011005997657,-0.003449738595075905,-0.009014197471935766
1782943319897210400,6.38521044921875,-0.10244564447402954,-0.003574534018523991,0.0008641699481289833
1782943319907195400,6.3951953125,-0.1060375314861536,-0.0020493702778592703,-0.007359582682303152
1782943319917180400,6.405180419921875,-0.10678747307062149,0.007144811987038702,-0.0017972541137365624
1782943319927165200,6.415165283203125,-0.09691139122247695,0.0035579847425222396,0.0004092018553987145
1782943319937149200,6.425149169921875,-0.10753273847997188,0.00046381811946630475,0.001214122746826615
1782943319947134200,6.43513427734375,-0.10109773699641227,0.0028478271791711448,-0.007046877171052619
1782943319957119500,6.445119384765625,-0.10124679007828236,0.0022361250216141344,0.0012595784569042734
1782943319967104500,6.4551044921875,-0.10289221919775009,0.009539232842903584,-0.002697952113393694
1782943319977089300,6.46508935546875,-0.10393851338028907,0.003520703205745667,-0.006312509898340795
1782943319987074300,6.47507421875,-0.10154372719824313,0.006330207668524235,0.0030980367972864766
1782943319997059300,6.485059326171875,-0.09690320791602135,0.0010257811174727975,-0.004872316460811999
1782943320007043300,6.495043212890625,-0.08777472956478595,-0.0012387297484092413,-0.009050077069492544
1782943320017028400,6.5050283203125,-0.09600070611834526,0.004429744342062622,-0.0018215277551789767
1782943320027013400,6.515013427734375,-0.10198854835629463,0.0018208404853008687,-0.0035176184828043912
1782943320036998100,6.524998046875,-0.09749708215594291,0.004425506558362395,0.003393439547286834
1782943320046983400,6.5349833984375,-0.08627659996151923,-0.0012987711062654851,-0.005866097288113087
1782943320056968400,6.544968505859375,-0.0919599062949419,0.005614570212457329,-0.008805463791813236
1782943320066953500,6.554953369140625,-0.09300503143370151,-0.00121063616508618,-0.0007652875673607923
1782943320076938500,6.5649384765625,-0.10317688135802745,-0.0031632863365113734,-0.0005785168405855074
1782943320086922500,6.574922607421875,-0.08611644096374511,0.0005210099331103265,0.007865269465406891
1782943320096907300,6.5849072265625,-0.10601765774190425,0.0003414886477403343,0.0016121912868577056
1782943320106892300,6.594892333984375,-0.10047989735901355,0.0055418703024275595,-0.0019806843892438337
1782943320116877300,6.604877197265625,-0.09149988756775855,-0.0011370777385309337,0.008108916911995038
1782943320126862300,6.6148623046875,-0.09628478375673294,-0.004575856548175216,0.0013174575404264032
1782943320136847400,6.624847412109375,-0.09015022652447223,-0.004104311779979616,-0.00037647319615352897
1782943320146832400,6.634832275390625,-0.09733400054872035,0.0007593122010119259,0.006744302611460443
1782943320156817400,6.6448173828125,-0.09464052368104457,-0.007619845620263368,-0.00025602743754861874
1782943320166801400,6.654801513671875,-0.09958090269267558,0.002939761512633413,-0.002067084031063132
1782943320176786400,6.664786376953125,-0.09748539171814918,0.005447944941278547,0.0022432420322787945
1782943320186771500,6.674771484375,-0.10122574729025363,-0.004895115097798407,-0.010577784393692854
1782943320196756500,6.684756591796875,-0.11139818173646926,-0.0007985482328571379,0.002936633407208137
1782943320206741200,6.6947412109375,-0.1049655183404684,0.002122472046688199,0.007636650624591857
1782943320216726300,6.704726318359375,-0.10541560019552706,-0.007116133881825954,-0.0007269397347932681
1782943320226711300,6.714711181640625,-0.10331775113344192,-0.0036350868330337106,0.0011233962730504573
1782943320236695300,6.7246953125,-0.09688391869366168,-0.0009242935043759644,-0.004360412282764446
1782943320246680300,6.734680419921875,-0.10032616810202598,0.0010283931996673346,-0.0016267221357091329
1782943320256665300,6.744665283203125,-0.10107260255515575,0.0012749518392607569,-0.0011654932655510491
1782943320266650400,6.754650390625,-0.09613280806541442,-0.00014245894430205225,0.006365409129357431
1782943320276635400,6.764635498046875,-0.10465981339216232,-0.008491495621949435,-0.0014684057518607005
1782943320286620400,6.774620361328125,-0.11602993319034575,-0.0006726933634839952,0.00006457140250131487
1782943320296605400,6.78460546875,-0.10525427215397358,-0.0019325937640853226,-0.0006362406604806892
1782943320306590200,6.794590087890625,-0.10315817665755748,-0.0009187953453511,0.004523608054418583
1782943320316574200,6.80457421875,-0.10180793109238147,-0.0013788871377706526,0.001879260708228685
1782943320326559200,6.814559326171875,-0.09970774394273757,-0.0048852147582918405,-0.004290603016142268
1782943320336544300,6.824544189453125,-0.10599135425686836,0.0005910612283274531,0.008541435710899532
1782943320346529500,6.834529541015625,-0.10030337174832821,0.005773468834906816,-0.0001928419912466779
1782943320356514600,6.8445146484375,-0.08608721486926078,-0.005178443817514926,-0.0010482646606280468
1782943320366499300,6.854499267578125,-0.0983557448118925,0.0010406498930417,-0.00657907014634693
1782943320376484400,6.864484375,-0.09236731805205345,0.00031635420648381114,0.0017609817905351519
1782943320386468400,6.87446826171875,-0.08967033405303955,-0.0023804471294395623,0.0002597994303680025
1782943320396453400,6.884453369140625,-0.0989484500080347,0.005881824580207467,0.010573697307042312
1782943320406438400,6.8944384765625,-0.09760171157419681,0.007976477038208394,0.004698035322851501
1782943320416423400,6.90442333984375,-0.10448445682525634,-0.00701046328395605,0.006743994367495179
1782943320426408200,6.914408203125,-0.10882219376862048,-0.0007868760613724589,0.002424382169288583
1782943320436393200,6.924393310546875,-0.09939677829742431,0.00542001575473696,-0.0028352188593475146
1782943320446378500,6.93437841796875,-0.10448796395659446,0.0016924465989694,0.0019295044745667837
1782943320456363500,6.944363525390625,-0.10089724598824977,-0.00037471506390720604,-0.001130755312310066
1782943320466347500,6.954347412109375,-0.10089549242258071,-0.0016412644010037182,-0.0009671690982999279
1782943320476332500,6.96433251953125,-0.10867489425241947,0.006069602237269282,-0.002680585420061834
1782943320486320400,6.9743203125,-0.0947615197122097,0.004861432023905217,0.0064747078728629275
1782943320496305400,6.984305419921875,-0.10194529373645782,-0.0049848209415562445,0.007144460360589437
1782943320506290400,6.99429052734375,-0.09764613523781299,-0.0016859072603285312,-0.004955195271561388
1782943320516275500,7.004275390625,0.1200409223973751,0.015017627721372991,-0.05022742255807388
1782943320526260500,7.014260498046875,0.3504080133855343,0.017257935727760194,-0.1325088656359352
1782943320536245200,7.024245361328125,-0.7499813319563865,-0.03340332537004724,0.14523383410917595
1782943320546229200,7.034229248046875,-0.28442367534637447,-0.007411719294916838,0.051930048057762905
1782943320556214300,7.04421435546875,-0.04493336670398712,0.011728395183943212,-0.022822109193541107
1782943320566199300,7.05419921875,-0.22594459837079048,-0.016556436394900082,0.045643396403174843
1782943320576184300,7.064184326171875,0.007205985856056213,0.005846351408027112,-0.025037001914170104
1782943320586169600,7.074169677734375,0.014987725773453711,0.008223145275656133,-0.01301216280061053
1782943320596154400,7.084154296875,-0.09858137026131153,0.002012435800954699,0.006214691530074924
