time,seconds_elapsed,z,y,x
1782943355149328400,0.080328369140625,-0.09573241057097912,-0.0063676170694641765,0.0025242052649729883
1782943355159313400,0.0903134765625,-0.09723170921802521,0.003773508923035115,0.007879953294596634
1782943355169298400,0.10029833984375,-0.10082359623014926,-0.0032393472474068403,0.003694276524230372
1782943355179283700,0.11028369140625,-0.09768003750741482,-0.010920732062868773,0.0054297220147098415
1782943355189268500,0.1202685546875,-0.10486381153166294,-0.009681198596861213,0.009315292460494675
1782943355199253500,0.13025341796875,-0.1113005665808916,-0.0034724801498465237,0.01033187192478217
1782943355209238500,0.140238525390625,-0.10172259089648723,0.004105919215176254,0.004875115772674326
1782943355219223600,0.1502236328125,-0.09783201319873333,-0.0033724173088558016,0.007481953253224491
1782943355229207600,0.16020751953125,-0.09124737411141395,-0.0063801477574743325,0.011811285411135759
1782943355239192600,0.170192626953125,-0.09962474183440208,-0.009190967394504696,0.0004240637811017222
1782943355249177300,0.18017724609375,-0.11533727475106716,-0.006180752727854996,0.002557271850935649
1782943355259162400,0.190162353515625,-0.10261924747526645,-0.001640223221387714,0.0004938684811466374
1782943355269147400,0.2001474609375,-0.09573533318042754,-0.0009071779727935791,0.009464761100895702
1782943355279132700,0.210132568359375,-0.10261866295337677,0.0012009732875972986,-0.00436926002621185
1782943355289117700,0.22011767578125,-0.1002203696399927,-0.0024277568698860704,0.006831800515111536
1782943355299102500,0.2301025390625,-0.09527882158458233,-0.0034655937513336536,0.006116384538041893
1782943355309087500,0.24008740234375,-0.1036585273951292,-0.006906016528792679,0.006195756217453162
1782943355319071500,0.250071533203125,-0.09947218162119388,-0.005547094466816634,0.0031571694062673484
1782943355329056500,0.260056396484375,-0.10321370623707771,-0.0037345651521347462,0.007129075561789796
1782943355339041500,0.27004150390625,-0.09094342272877692,0.0012120426708832383,0.00990980830452172
1782943355349026600,0.280026611328125,-0.1048614734441042,-0.0009744527890346944,0.0048014865641715
1782943355359011300,0.29001123046875,-0.10381634830534457,-0.0009976144689135254,0.008174495244782884
1782943355368996600,0.29999658203125,-0.08421499125659465,-0.0022898097039200363,0.010097471797151956
1782943355378981600,0.309981689453125,-0.11010171218514442,-0.008155011942889541,-0.0005477084270794876
1782943355388966700,0.319966552734375,-0.09424187975227832,-0.0029904505202546713,0.00975451271153288
1782943355398950700,0.32995068359375,-0.10202537323534489,-0.00333500790791586,0.008625700477848294
1782943355408935400,0.339935302734375,-0.10995733527839183,-0.0025440036606974897,0.012509583573334385
1782943355418920400,0.34992041015625,-0.09334931482672691,-0.006197155873384326,0.0018047592834685927
1782943355428905500,0.359905517578125,-0.09694178636074066,-0.007361048553604632,0.00748453793595545
1782943355438890500,0.369890380859375,-0.1057715740263462,0.0010714834227226674,0.011360100727668031
1782943355448875500,0.37987548828125,-0.10337737236618995,-0.008647124575078487,0.015049157654086593
1782943355458860300,0.3898603515625,-0.1015846437305212,-0.0022366730108857153,0.00007928948102053255
1782943355468845600,0.399845458984375,-0.10397709182500839,0.00022673969427123664,0.005228616801905446
1782943355478829600,0.40982958984375,-0.09409808736741543,-0.010052077735867351,0.0042598768010269844
1782943355488814600,0.419814697265625,-0.0884089358150959,-0.005098912307899445,0.0049174205444403925
1782943355498799600,0.429799560546875,-0.09993161582648753,-0.0020857567654922605,0.0053618147275177755
1782943355508784600,0.43978466796875,-0.08990589637458324,0.0001384951552376151,0.0057360617172555065
1782943355518765600,0.449765625,-0.09738543847501277,0.0016772124972194433,0.007711487692780792
1782943355528750600,0.45975048828125,-0.08346855680346489,-0.0012009915539063513,0.00996336055608699
1782943355538735600,0.469735595703125,-0.09484452182054519,-0.0013861023298464715,0.00513398362128064
1782943355548720600,0.479720703125,-0.09798749602138995,0.0030120412975549694,-0.0016134196961415
1782943355558705700,0.48970556640625,-0.10726911910772323,-0.008772668917197734,0.002093759692145977
1782943355568689700,0.499689697265625,-0.10382979230880737,-0.008522566613648086,-0.004252243767131585
1782943355578674400,0.50967431640625,-0.10816869829595088,-0.00030643560066819186,0.0038645573405083266
1782943355588659500,0.519659423828125,-0.09036123892664909,-0.003024663317110389,0.010740411626477726
1782943355598644700,0.529644775390625,-0.10218319414556026,-0.001651895392872393,0.0044486043061595405
1782943355608629800,0.539629638671875,-0.10038754290044308,-0.004344879070203751,0.009086732985184061
1782943355618614800,0.54961474609375,-0.09634849664270877,-0.00023536139214411377,0.013008155629062093
1782943355628599600,0.559599609375,-0.09963877035975456,-0.007488547390792518,0.013267420769890305
1782943355638584600,0.56958447265625,-0.10368073922693728,-0.00202114883037284,0.0007628101991955191
1782943355648568600,0.579568603515625,-0.10053659598231315,-0.0055187086225487285,0.015985739817877764
1782943355658553600,0.5895537109375,-0.09889058234095573,-0.005966616786830127,0.015346325386199167
1782943355668538600,0.59953857421875,-0.09604571430385112,-0.002002097070030868,0.006809960859350394
1782943355678523600,0.609523681640625,-0.09619652095139027,-0.0055501266741193826,0.012609068742301313
1782943355688508700,0.6195087890625,-0.10038812742233276,-0.005624671481363475,0.007829446950065903
1782943355698493700,0.62949365234375,-0.0994885482341051,-0.00046538902204483744,0.0014464633481111376
1782943355708478700,0.639478759765625,-0.09365385073125362,-0.0024943375663831827,0.013337558830075431
1782943355718463700,0.649463623046875,-0.09320435339808464,0.0021175949421711267,0.012565768456691875
1782943355728447700,0.65944775390625,-0.09829144740402698,-0.00524584649791941,0.009697889436758122
1782943355738432800,0.669432861328125,-0.10113689996302128,-0.0026239187628030775,0.006346667896269355
1782943355748417500,0.67941748046875,-0.08871931693851948,-0.0010402480342425406,0.009842401057539973
1782943355758402600,0.689402587890625,-0.09829846166670322,-0.003616802257671952,0.00405438767404994
1782943355768387600,0.6993876953125,-0.10278934334516525,-0.010869330669194458,0.011175732020533177
1782943355778372600,0.70937255859375,-0.10309095664024352,-0.001938712977617979,0.014163527076109312
1782943355788357600,0.719357666015625,-0.10458967076539993,0.0018858502792194485,0.010438469537836498
1782943355798342700,0.7293427734375,-0.08918225827515125,-0.004920286071673035,0.013202646154700778
1782943355808327700,0.73932763671875,-0.1020510921984911,0.00016898162504658102,0.006851820389833301
1782943355818311700,0.749311767578125,-0.09770809455811977,-0.010282452425640076,0.004077234260097612
1782943355828296700,0.759296630859375,-0.0957633902311325,-0.0012974011330865324,0.0024797176692751234
1782943355838281700,0.76928173828125,-0.09546177693605422,-0.007518522403948008,0.011887643149553331
1782943355848266500,0.7792666015625,-0.09710895962119102,-0.002096643485687673,0.02097221157711465
1782943355858251500,0.78925146484375,-0.09486673365235328,-0.00965781772127375,0.007098607358289882
1782943355868236500,0.799236572265625,-0.10444178672730922,-0.008985142624098807,0.005632174367806874
1782943355878221800,0.809221923828125,-0.0980073697656393,-0.004668411936145276,0.01425698436308885
1782943355888206800,0.819206787109375,-0.10399462748169898,0.0018447328175418079,0.010534315144724677
1782943355898190800,0.82919091796875,-0.09621405660808086,-0.0024506445551291107,0.00474960111330729
1782943355908175600,0.839175537109375,-0.09516893146932125,0.0003260901492089033,0.008643035205139312
1782943355918160600,0.84916064453125,-0.105344873046875,0.007693678041454404,0.009968710301350802
1782943355928145700,0.859145751953125,-0.10370061297118663,0.004177888472843915,-0.003754715174308512
1782943355938130700,0.869130615234375,-0.11357377220988273,0.007961644795257598,0.0015149916898109948
1782943355948115700,0.87911572265625,-0.09561316810548305,-0.006113350047450512,0.0016418283732957206
1782943355958100500,0.8891005859375,-0.09980185196697712,-0.0021357699196785686,0.0060655493999482125
1782943355968085500,0.89908544921875,-0.10653671317994594,0.0006292195479385554,0.006130903970450162
1782943355978069500,0.909069580078125,-0.0902262143701315,-0.004450275673437864,0.013936956345196812
1782943355988054800,0.9190546875,-0.09531506194174288,0.00877500700475648,0.0063483803627430455
1782943355998039800,0.929039794921875,-0.09576572831869125,-0.0008702982948161661,0.011933073743456042
1782943356008024600,0.939024658203125,-0.09247662364542483,0.002241349186003208,0.018640254648344123
1782943356018009600,0.949009521484375,-0.10235679714679717,0.001360054573137313,0.011222870514332316
1782943356027994600,0.95899462890625,-0.10101473488807677,-0.006680665074009448,0.01565899893140886
1782943356037979600,0.968979736328125,-0.10236147332191467,-0.006979501890111714,0.00802652672501281
1782943356047964700,0.978964599609375,-0.10415887813270092,0.002678023570217192,0.016898262969357893
1782943356057948700,0.98894873046875,-0.09607610944211482,-0.00279324744772166,-0.0037617705361801196
1782943356067933400,0.998933349609375,-0.09846972658038139,-0.0013233210256323217,0.0025927495896932665
1782943356077918500,1.00891845703125,-0.10938918000161647,-0.0007440780992619693,0.008753877451759762
1782943356087903700,1.01890380859375,-0.0948749169588089,-0.0007162585105746984,0.012361076197447255
1782943356097888800,1.028888671875,-0.09083703974485396,-0.0013721103371120988,0.00470839916995028
1782943356107873800,1.038873779296875,-0.09802081376910209,0.001668773462437093,0.010164805978897493
1782943356117858600,1.048858642578125,-0.09891571678221225,0.006334061859734356,0.014014608708268496
1782943356127843600,1.058843505859375,-0.10085925206542014,-0.0052794747728854416,0.0018155752217164263
1782943356137828600,1.06882861328125,-0.09951426719725132,-0.006114811352174729,0.01004417070733616
1782943356147812600,1.0788125,-0.09487725504636764,0.00369253437500447,0.007223112804081756
1782943356157797600,1.088797607421875,-0.1026560723543167,0.0003012297025881708,0.004338666241837199
1782943356167782700,1.09878271484375,-0.10983400115966796,-0.0036103177179582415,0.004539291964028962
1782943356177767700,1.108767578125,-0.09292612097859382,-0.004771890576928854,0.0026924197050393556
1782943356187752700,1.118752685546875,-0.09966332027912139,-0.006728321874327957,0.004458682742179371
1782943356197737700,1.12873779296875,-0.10519991161823272,0.0007318214058876037,0.012908444414520635
1782943356207722800,1.13872265625,-0.10071019898355006,0.0003945340092293918,0.014205402589612639
1782943356217707500,1.14870751953125,-0.09996025739908218,-0.008047167654242366,0.007173942183400504
1782943356227691800,1.15869189453125,-0.09906009368896483,-0.0077040898376144465,0.010636099585343617
1782943356237676500,1.168676513671875,-0.09337444926798343,-0.0004975559922866523,0.00979426476660883
1782943356247661600,1.17866162109375,-0.1074403840214014,-0.0033544980596750974,-0.00040960828077513724
1782943356257646600,1.188646484375,-0.08858546142578125,0.00020586130302399394,0.005832469013147055
1782943356267631600,1.198631591796875,-0.09696692080199718,-0.0028263642660342155,0.006472385768324602
1782943356277616600,1.20861669921875,-0.11133154624104499,0.0016374650087207555,0.006567078314453829
1782943356287601700,1.2186015625,-0.09891337869465351,-0.00007450827462598681,0.003582240117655601
1782943356297586700,1.228586669921875,-0.10041033925414085,-0.006334189723897725,0.01016372370008612
1782943356307570700,1.23857080078125,-0.09038345075845718,-0.0009853760418482124,0.012473662876582237
1782943356317555700,1.2485556640625,-0.09980945075154304,-0.00357533773612231,0.007494876666879281
1782943356327540700,1.258540771484375,-0.09621464112997055,0.0010659121984615922,0.006555154981219675
1782943356337525500,1.268525390625,-0.10534195043742656,-0.004943721746187657,-0.0009662717658677137
1782943356347510500,1.278510498046875,-0.10668927339315414,0.006152184220496564,0.008831011508312076
1782943356357495600,1.28849560546875,-0.10878536888957023,0.000508132185228169,0.005754786967323161
1782943356367480600,1.29848046875,-0.1014537108272314,-0.00008102934695780277,0.0032975505579146557
1782943356377465600,1.308465576171875,-0.09935936889648436,-0.004695500872470438,0.007970629536022898
1782943356387449900,1.318449951171875,-0.09906009368896483,-0.0056046698729507625,0.009637238440837245
1782943356397434600,1.3284345703125,-0.09397007707357406,-0.0004653342231176793,0.0046278630133369004
1782943356407419600,1.338419677734375,-0.10444178672730922,-0.0020897936197929083,0.004901579087914433
1782943356417404700,1.34840478515625,-0.10010171169638633,-0.000011580839939415454,-0.006298782767087686
1782943356427389700,1.3583896484375,-0.10848083298504352,-0.00439631699649617,0.008501555791660212
1782943356437374500,1.36837451171875,-0.10728607024252414,0.003022873218823224,0.009169175687804818
1782943356447359500,1.378359375,-0.10339783063232898,0.0022210187840275464,-0.006216550127021036
1782943356457344500,1.388344482421875,-0.09816519067585468,0.001818831191305071,0.01451643673358485
1782943356467328500,1.39832861328125,-0.10923720431029796,-0.0007774141132831573,0.010199900125165003
1782943356477313500,1.4083134765625,-0.1098363392472267,-0.005533303403481841,0.002530712637573015
1782943356487298800,1.418298828125,-0.09666413846313952,-0.0027158165636472402,0.0009471081243827939
1782943356497283600,1.42828369140625,-0.10160159486532211,0.0007040748824365437,0.011584840261097996
1782943356507268600,1.4382685546875,-0.10145020369589328,-0.004769187163189054,0.00032743728950154034
1782943356517253600,1.448253662109375,-0.10384382083415984,-0.005234831913560629,0.014322448531445115
1782943356527238700,1.45823876953125,-0.09711129770874977,0.00111943248398602,0.00865109749729745
1782943356537223700,1.4682236328125,-0.10488894597291946,0.0003438267352990806,-0.004604089412104804
1782943356547208400,1.47820849609375,-0.09650924016237258,-0.0020497356040403247,0.0033744585688924413
1782943356557192400,1.4881923828125,-0.09591302783489226,0.008063954392261803,0.00898439827200491
1782943356567177500,1.498177490234375,-0.0941167920678854,-0.0010858590079471468,0.0075954829305643215
1782943356577162800,1.508162841796875,-0.09306874431967735,0.002456690703425556,0.013209655850799754
1782943356587147800,1.518147705078125,-0.09920447059571742,0.0020310491698794066,0.00441040488735307
1782943356597132800,1.5281328125,-0.0929185221940279,-0.002372044627275318,0.002500207901454996
1782943356607117600,1.53811767578125,-0.09905015681684017,-0.006990425142925232,-0.008769476879690773
1782943356617102600,1.5481025390625,-0.09306348362267017,-0.007795969372149557,0.006860869062680285
1782943356627087600,1.558087646484375,-0.10218962388634681,-0.0044227300793863835,0.011274671483517159
1782943356637071600,1.568071533203125,-0.09994330626428127,-0.0003137786569073796,0.005548599154024851
1782943356647056600,1.578056640625,-0.09829729262292385,0.002832045088149607,0.004583795542747248
1782943356657041700,1.588041748046875,-0.10488076266646384,-0.006934877297095954,0.0055164047843194565
1782943356667026400,1.5980263671875,-0.11445756930708885,-0.006311210707109421,0.010838599887501913
1782943356677011700,1.60801171875,-0.10293722738325595,-0.002213273868989199,-0.0020671981954947113
1782943356686996700,1.617996826171875,-0.0947094972640276,0.0007339585640467703,-0.004014224627020303
1782943356696981800,1.627981689453125,-0.09905191038250923,-0.003335318435169756,0.0025886647863313556
1782943356706966500,1.637966552734375,-0.09890344182252883,-0.00015396671900525687,0.005643115886929445
1782943356716950500,1.647950439453125,-0.0968090998917818,-0.003740958360303193,0.007348369451833423
1782943356726935600,1.657935546875,-0.1144686752229929,-0.0046823673962615425,0.0037824548478936773
1782943356736920600,1.667920654296875,-0.0990571710795164,-0.003903875570744276,0.008454750658001284
1782943356746905600,1.677905517578125,-0.10788871231079102,-0.001226454788725823,0.0021544563538394867
1782943356756890600,1.687890625,-0.11087912629842757,0.0029966975979506968,0.005499309802334755
1782943356766875600,1.697875732421875,-0.10743746141195297,-0.0016382687263190746,0.001980766587634571
1782943356776860700,1.707860595703125,-0.10114800587892532,-0.002125632118154317,0.00443378119636327
1782943356786845700,1.717845703125,-0.09845394448935985,-0.0030269648720510304,0.00792224208334228
1782943356796829700,1.72782958984375,-0.09157003019452095,-0.004986501441989094,0.00991205049395794
1782943356806814700,1.737814697265625,-0.09590484452843666,0.006787997906003147,0.01455602895845659
1782943356816799700,1.7477998046875,-0.10936872173547744,-0.005485646603163331,0.01737531502973288
1782943356826784500,1.757784423828125,-0.10832184303104876,-0.0002303746897727251,0.005033701584581285
1782943356836769500,1.76776953125,-0.09679974754154681,0.00010083002597093582,0.0036425486202817407
1782943356846754600,1.777754638671875,-0.09874737447798251,-0.0017598310130648314,0.0051366619188454934
1782943356856739600,1.787739501953125,-0.09455810609459876,-0.004440119605604559,0.008074966693331952
1782943356866724600,1.797724609375,-0.11056991421878337,-0.002610182498395443,0.0025838401974528093
1782943356876708900,1.807708984375,-0.08902151475548743,-0.007407919902633875,-0.0025863860642770303
1782943356886693600,1.817693603515625,-0.10368833801150322,-0.004927245535422117,0.007009488319710363
1782943356896678700,1.8276787109375,-0.10398702869713305,-0.005544957308657467,0.007931192574778105
1782943356906663700,1.83766357421875,-0.09456219774782657,0.009978373178839683,-0.0037498426363687027
1782943356916648700,1.847648681640625,-0.09411386945843696,-0.0025788375120609996,-0.0025967955771484413
1782943356926633500,1.857633544921875,-0.08678221139609814,-0.007495525120850652,0.003504555788543075
1782943356936618500,1.867618408203125,-0.09321721287965774,-0.00807838477641344,0.0052272879279218615
1782943356946603500,1.877603515625,-0.10084697710573673,-0.006074497608095407,0.0006897358298301697
1782943356956587500,1.88758740234375,-0.1038373910933733,-0.0034531178622506558,-0.0012384671702166086
1782943356966572500,1.897572509765625,-0.0912707549870014,0.007892506815493106,0.0074926641601952716
1782943356976557800,1.907557861328125,-0.10264613548219204,0.011917086156457661,0.004288066282472573
1782943356986542600,1.91754248046875,-0.09890285730063915,-0.006550864681880921,0.003972308014321606
1782943356996527600,1.927527587890625,-0.10249182170331478,-0.0021696721892803905,0.006068280213151592
1782943357006512600,1.9375126953125,-0.10758066927492618,-0.0012490867456421255,0.0019170126024633644
1782943357016497700,1.94749755859375,-0.09815174667239189,0.0009490991520695387,0.006163993389299139
1782943357026482700,1.957482666015625,-0.09231938725709915,-0.0024877799614332614,0.0072773591753910296
1782943357036467500,1.967467529296875,-0.10144611204266547,-0.014225838022865355,0.0006682386673637665
1782943357046451500,1.977451416015625,-0.1003992333382368,-0.005214410180039704,0.008256266660545953
1782943357056436500,1.9874365234375,-0.10025076477825641,-0.003206321760639548,0.005652993393549696
1782943357066421800,1.997421875,-0.0998024364888668,0.0014391842239536343,0.01592745202569058
1782943357076406800,2.00740673828125,-0.09486673365235328,-0.00010548793477937579,0.005014352996717207
1782943357086391800,2.017391845703125,-0.09516951599121093,-0.0073086790455505245,0.004506437723909039
1782943357096376600,2.02737646484375,-0.11297580631673336,-0.0053834100713953375,0.0030137560473172923
1782943357106361600,2.037361572265625,-0.10399287391602992,-0.009616225335560738,0.012474395812232978
1782943357116346600,2.0473466796875,-0.10040098690390586,-0.006806501677073538,0.0046223602877347725
1782943357126330600,2.05733056640625,-0.10069850854575634,-0.00463394341096282,0.005671083889377769
1782943357136315600,2.067315673828125,-0.09351707260906696,-0.0007152538635767996,0.01836544716180069
1782943357146300700,2.07730078125,-0.09381400972902774,0.0038118499057367443,0.005472656974138226
1782943357156285400,2.087285400390625,-0.1050350764453411,0.0029966427990235386,0.003642292891955003
1782943357166270700,2.097270751953125,-0.10458557911217212,0.0022292934220284224,0.0026785601430456153
1782943357176255700,2.107255859375,-0.1017412955969572,-0.000807169930730015,-0.0024064149710466155
1782943357186240800,2.11724072265625,-0.09515665650963782,-0.007078541817795485,-0.0014772603451739996
1782943357196225500,2.1272255859375,-0.10084171640872955,-0.0009756583654321729,0.006332785501389299
1782943357206209500,2.13720947265625,-0.0971013608366251,-0.00395467417621985,0.005258532449556514
1782943357216194600,2.147194580078125,-0.09770166481733322,-0.00133026222307235,0.0025353431469178757
1782943357226179600,2.1571796875,-0.10937573599815369,-0.001986826435662806,0.013867656251939479
1782943357236164600,2.16716455078125,-0.10728197858929633,0.0012172851015813649,0.009553208852617534
1782943357246149600,2.177149658203125,-0.10817921968996524,-0.0013433956992812454,0.0076354701643693255
1782943357256134700,2.187134765625,-0.09800094002485275,-0.0014540712658315895,0.006681217629858292
1782943357266119700,2.19711962890625,-0.08707681042850017,0.0006239953835494816,-0.004045960055710748
1782943357276104700,2.207104736328125,-0.09380874903202056,-0.008133256768807768,0.005916535133984871
1782943357286088700,2.217088623046875,-0.09829963071048259,-0.0034068858340382574,0.007410876761411782
1782943357296073700,2.22707373046875,-0.09171616066694259,0.0003641388709656894,-0.0031996956570306792
1782943357306058800,2.237058837890625,-0.08662906666100025,0.004134816516097635,0.003351415620022453
1782943357316043500,2.24704345703125,-0.09740355865359306,-0.0009188684105873108,0.013417167971504386
1782943357326028500,2.257028564453125,-0.09021803106367587,-0.004462167040631175,0.013043151593918445
1782943357336013600,2.267013671875,-0.09754968912601471,0.0070125273768790065,0.009634137734875549
1782943357345998600,2.27699853515625,-0.10293372025191783,-0.003136288731731474,0.011105269733362365
1782943357355983600,2.286983642578125,-0.10009177482426165,-0.0020502835933119056,0.005168082253704779
1782943357365968600,2.29696875,-0.09979191509485244,-0.00130386740649119,0.018342048019904175
1782943357375952600,2.30695263671875,-0.11101122824549674,0.00152799501856789,0.014842360202723648
1782943357385937700,2.316937744140625,-0.10801730712652206,-0.0022432488821446895,-0.0001790258117369376
1782943357395922700,2.326922607421875,-0.09964052392542362,0.0004100603719241917,0.00716856047209585
1782943357405907700,2.33690771484375,-0.1108650977730751,0.001390979434363544,0.01326471278957324
1782943357415892500,2.346892578125,-0.10308452689945698,0.0033693851015530523,0.014869497088110074
1782943357425877500,2.35687744140625,-0.09799743289351463,0.0014586013104766606,0.008620932971185538
1782943357435862500,2.366862548828125,-0.10398118347823619,0.0031997093567624688,0.006056624024687335
1782943357445847800,2.376847900390625,-0.10817162090539932,-0.006204279733914881,0.010755465348425787
1782943357455831600,2.38683154296875,-0.10413491273522377,-0.004714205572940409,0.007336254322354216
1782943357465816800,2.39681689453125,-0.1032405942440033,-0.0012697459411807359,0.004468080758186988
1782943357475801600,2.406801513671875,-0.10788169804811477,-0.0029832535944879055,0.007372387364949099
1782943357485786600,2.41678662109375,-0.09905015681684017,-0.0020578641115687785,0.00758978840871714
1782943357495771600,2.426771728515625,-0.08842997860312461,-0.005502762134745717,0.010320546813169493
1782943357505756700,2.436756591796875,-0.09621171852052211,0.0015424071364104747,0.007645203823805786
1782943357515741400,2.446741455078125,-0.10264672000408172,0.0005264532932080328,0.009062507292802911
1782943357525726200,2.456726318359375,-0.10099895279705524,-0.0002862147965468466,0.015254537183209321
1782943357535710200,2.466710205078125,-0.10324176328778266,-0.003968611370027065,0.010407896303059532
1782943357545695200,2.4766953125,-0.09919745633304118,-0.0030770328251644966,0.009169990821846295
1782943357555680300,2.48668017578125,-0.09410919328331947,0.0030208821911364794,0.011338181156804784
1782943357565665300,2.496665283203125,-0.09994447530806064,0.00027646058751270176,0.004292443346779327
1782943357575650300,2.506650390625,-0.10114216066002846,-0.0065871781042777,0.002692801014240831
1782943357585635000,2.516635009765625,-0.09590426000654696,-0.006171546508092433,0.008591501380724367
1782943357595620000,2.5266201171875,-0.10009411291182041,-0.003778586956951767,0.00935493720100494
1782943357605605400,2.53660546875,-0.09829846166670322,-0.001667476554494351,0.0053869080695789304
1782943357615589000,2.546589111328125,-0.10742635549604893,0.003991316392179579,-0.0019928269181866197
1782943357625574400,2.556574462890625,-0.10533142904341221,-0.0021250658625736833,0.000541689678246621
1782943357635559400,2.566559326171875,-0.09769991125166416,0.002946446981746703,0.009128841394127812
1782943357645544200,2.576544189453125,-0.09545710076093673,0.008250289010908454,0.01241275386904599
1782943357655529200,2.586529296875,-0.10353811588585377,0.0021539631634950635,0.004181560000963509
1782943357665514200,2.59651416015625,-0.10952478908002376,-0.0012456344132311642,-0.0012559229118051006
1782943357675499300,2.606499267578125,-0.09650631755292415,-0.008595759714022278,0.003697913803020492
1782943357685484300,2.616484375,-0.09919920989871024,-0.005028276490792632,0.01093517386346357
1782943357695469000,2.626468994140625,-0.10174363368451594,-0.0024708470929414032,0.009104832614166662
1782943357705453000,2.636453125,-0.09770166481733322,-0.0004570778514258563,0.007712542572128586
1782943357715438300,2.646438232421875,-0.08872048598229884,-0.00776480704890564,0.007244954743131529
1782943357725423400,2.65642333984375,-0.09904723420739173,-0.005462594521138816,0.009653712368314154
1782943357735408400,2.666408447265625,-0.10249123718142508,-0.002058229437749833,0.00848768024664605
1782943357745393200,2.67639306640625,-0.09830021523237228,0.0016079101206734777,0.0016420452857157214
1782943357755378200,2.686378173828125,-0.10428338129520416,0.002550634330883622,0.009368888094543944
1782943357765363200,2.69636328125,-0.09844868379235266,-0.011622085265256463,0.0040677312128129415
1782943357775348200,2.70634814453125,-0.09875146613121032,-0.00847182280709967,0.007142094873567112
1782943357785332200,2.716332275390625,-0.10174655629396438,-0.000880052503850311,0.002030631328059826
1782943357795317200,2.726317138671875,-0.10249357526898384,-0.007366601511556655,0.00532858146148501
1782943357805302000,2.736302001953125,-0.11056991421878337,-0.0019807072221301493,0.009660409253870602
1782943357815287300,2.746287353515625,-0.08901976118981837,-0.0008758877853862941,0.00338279485568637
1782943357825272300,2.756272216796875,-0.10128887565433979,-0.006463222931046038,0.013302083374606444
1782943357835257300,2.76625732421875,-0.10009177482426165,-0.003338624637108296,0.014028945477586239
1782943357845242400,2.776242431640625,-0.08527940561771392,0.00796584604633972,0.008297475453768856
1782943357855227100,2.78622705078125,-0.10951777481734752,-0.010591408776957542,0.009029372208181303
1782943357865211100,2.796211181640625,-0.08752163158655166,-0.010104812570102512,-0.002094675290887244
1782943357875196200,2.806196044921875,-0.09619885903894901,0.0010369600986130535,0.0119005939626717
1782943357885181200,2.81618115234375,-0.10098960044682025,0.0005448292001150548,0.0021811571310972793
1782943357895166200,2.826166259765625,-0.09605214404463767,-0.002256382358353585,-0.0005235672163777053
1782943357905151500,2.8361513671875,-0.1096668278992176,-0.00385583517793566,-0.004740712270664516
1782943357915136300,2.84613623046875,-0.10742226384282111,-0.006709087450895458,0.006043890123988967
1782943357925121300,2.856121337890625,-0.0867705209583044,0.00010912293028086423,0.004793332940468098
1782943357935106300,2.866106201171875,-0.09694763157963752,-0.0013339520175009965,0.011341526174650061
1782943357945091300,2.87609130859375,-0.10547639047205448,-0.0010482669439166783,0.009037500715709756
1782943357955075300,2.886075439453125,-0.0951537339001894,-0.001693980968929827,0.014533269137376919
1782943357965060400,2.896060302734375,-0.09455810609459876,0.004711264697182923,0.013653255449433344
1782943357975045000,2.906045166015625,-0.10278875882327557,-0.006014821576420217,0.0063721653804183
1782943357985030100,2.916030029296875,-0.09395838663578032,-0.006096106651704758,0.004477618054801132
1782943357995015200,2.92601513671875,-0.1024906526595354,-0.005517302116751671,0.012044203684444072
1782943358005000400,2.93600048828125,-0.10054536381065846,-0.00042578766401857136,0.0055646118571981784
1782943358014985200,2.945985107421875,-0.09441139110028743,0.00020582477040588854,0.005711493531579617
1782943358024970200,2.95597021484375,-0.10802607495486735,-0.0012221074071712792,0.010518651784711983
1782943358034954200,2.965954345703125,-0.09665127898156642,-0.0068638396211899814,0.010797286063001956
1782943358044939300,2.975939208984375,-0.10368599992394446,-0.00543486626399681,0.011412424569949507
1782943358054924300,2.98592431640625,-0.09007073154747486,-0.007295965694449841,0.016290736946708056
1782943358064909300,2.995909423828125,-0.08827566482424735,0.007976531837135552,0.006225333938386757
1782943358074894000,3.00589404296875,-0.102342184099555,0.0012417254230938852,0.004901428390864748
1782943358084879000,3.015879150390625,-0.08962298777997493,0.0018326222546398638,0.009301218269369565
1782943358094864400,3.025864501953125,-0.09471241987347602,0.0023344525632448495,0.0037879027745686467
1782943358104849400,3.035849365234375,-0.10414192699790001,-0.005194225908536463,0.0011856478543020785
1782943358114834400,3.04583447265625,-0.09785539407432078,-0.00242127233017236,0.013967940571927465
1782943358124818400,3.055818359375,-0.09770400290489197,-0.005357270983140915,0.005098019542044494
1782943358134803200,3.06580322265625,-0.09306465266644955,0.000439030738081783,0.010449392790650018
1782943358144788200,3.075788330078125,-0.10712941837608814,-0.004877944767288863,0.006153369247296359
1782943358154773200,3.085773193359375,-0.10084405449628829,-0.004311670920345932,-0.0013225675403838975
1782943358164758300,3.09575830078125,-0.10203881723880767,-0.0059333721043542025,0.002993053469294682
1782943358174743300,3.105743408203125,-0.094408468490839,-0.009326905266474932,-0.0035099306499818336
1782943358184728000,3.11572802734375,-0.09979483770430088,-0.005914429941866546,0.004828591483517084
1782943358194713300,3.12571337890625,-0.09455927513837814,0.0029965880000963805,0.0037871378728770648
1782943358204697300,3.135697265625,-0.09366261855959891,0.004835877457540482,0.006168783728848211
1782943358214682400,3.145682373046875,-0.10009820456504821,-0.008273304560314863,0.0038713021751260383
1782943358224667400,3.15566748046875,-0.1008481461495161,-0.0016193996290676295,0.0038489716123091054
1782943358234652200,3.165652099609375,-0.09815466928184031,-0.00026199367074295876,0.009699716067663393
1782943358244637200,3.17563720703125,-0.09665829324424266,-0.0016084033110179007,-0.002484613040101249
1782943358254622200,3.185622314453125,-0.09935060106813907,-0.005821417896170169,0.004029177884268574
1782943358264607200,3.195607177734375,-0.0966565396785736,-0.004349628310557454,0.000039603641314897685
1782943358274592300,3.20559228515625,-0.10458148745894431,-0.004010715212393552,0.008542472323938273
1782943358284576300,3.215576171875,-0.10966799694299698,0.0028491971523500977,0.010148076323093846
1782943358294561000,3.22556103515625,-0.09425473923385143,-0.0034531178622506558,0.006374827694962732
1782943358304546300,3.23554638671875,-0.09021920010745525,-0.003132708535157144,0.00837731292406097
1782943358314531300,3.24553125,-0.097998601937294,0.005015398742910474,0.006877890979428775
1782943358324516400,3.255516357421875,-0.09545242458581923,-0.007377798759005964,0.009888073680037633
1782943358334501400,3.26550146484375,-0.08333119415938854,-0.003955861486308276,0.0013870224951650016
1782943358344486100,3.275486083984375,-0.09455401444137096,-0.00528844353063032,0.01459242914582137
1782943358354471200,3.28547119140625,-0.10623159275352954,-0.004731923892721534,0.007532491563796065
1782943358364456200,3.295456298828125,-0.10473580123782157,-0.01039002271965146,0.006185305605386384
1782943358374440200,3.305440185546875,-0.09725275200605392,0.004226714316941798,0.0009953722794773057
1782943358384425200,3.31542529296875,-0.10069792402386665,0.00645560588017106,-0.007070335678453557
1782943358394410500,3.325410400390625,-0.08783142818808555,0.0028143267683684824,0.008456529339845292
1782943358404395300,3.335395263671875,-0.10159925677776337,-0.0077605875315144655,0.009705084079236257
1782943358414380300,3.34538037109375,-0.10294891782104969,-0.0071921947927214205,-0.0016609235161216928
1782943358424365300,3.355365234375,-0.10638941366374492,-0.008572342305816709,0.016214283310167957
1782943358434350300,3.365350341796875,-0.09756137956380843,-0.006897321765683591,0.005988714454206638
1782943358444335000,3.375335205078125,-0.09411971467733382,-0.00016432371623814105,0.007081905101949814
1782943358454319400,3.3853193359375,-0.11058277370035648,-0.008874028666131198,0.006369293003319763
1782943358464304000,3.39530419921875,-0.09965805958211421,-0.0007024491809308528,0.003497767571441363
1782943358474289200,3.4052890625,-0.1104290444433689,-0.0009925181686878204,-0.0007709318568580784
1782943358484274200,3.415274169921875,-0.1010007063627243,-0.001639602166879922,0.00048228992449585346
1782943358494259500,3.425259521484375,-0.08723346229493617,-0.004503211437072605,0.009689347653987351
1782943358504244200,3.435244140625,-0.09860475113689898,-0.006353972136601806,0.002061615554790478
1782943358514229000,3.44522900390625,-0.10503683001101016,-0.00020399813950061797,-0.0023956332821282555
1782943358524214000,3.455214111328125,-0.09875380421876907,-0.003859086580947041,0.008076279584295116
1782943358534199300,3.46519921875,-0.08558686413168906,0.0008306056052446365,0.007138765838742255
1782943358544183000,3.47518310546875,-0.09965455245077609,-0.0006056377429515123,0.007867299309000372
1782943358554168300,3.485168212890625,-0.10549041899740695,0.0016742898877710104,0.0055556042835465625
1782943358564153000,3.495153076171875,-0.10250117405354976,-0.015070252957753836,0.004915986639179755
1782943358574138000,3.50513818359375,-0.09965630601644515,-0.004233582449145614,-0.007821380091330501
1782943358584123100,3.515123046875,-0.1078846206575632,0.0027278905939310785,0.009351532817655243
1782943358594108200,3.525108154296875,-0.10234627575278281,0.003993818876519799,-0.0002120353154838085
1782943358604093200,3.53509326171875,-0.09411854563355446,0.0012598821342922747,0.006080043716181535
1782943358614078000,3.545077880859375,-0.09606617256999016,-0.006869812704250216,0.002943433040753007
1782943358624062000,3.55506201171875,-0.10295242495238781,-0.00659967225966975,0.0065190196553361595
1782943358634047000,3.565046875,-0.10624562127888203,0.0016677505491301417,0.005171356489602476
1782943358644032300,3.5750322265625,-0.10071019898355006,0.0012795732154510914,0.0009951553670573049
1782943358654017300,3.585017333984375,-0.10370704271197319,0.001149791089631617,0.01288329170695506
1782943358664002300,3.595002197265625,-0.09382979182004927,-0.003065890376642346,0.010909913841332308
1782943358673987000,3.604987060546875,-0.1053530563533306,-0.0009467062655836344,0.002320908095082268
1782943358683972000,3.61497216796875,-0.09846680397093295,0.0013332761640660463,0.006682464305451139
1782943358693957000,3.62495703125,-0.0972708721846342,-0.0035296902297995984,0.0018176096318871713
1782943358703942100,3.634942138671875,-0.105501524913311,-0.005308609535824507,0.0001983127508079633
1782943358713926100,3.644926025390625,-0.10819383273720741,-0.002817906964942813,0.009901515400211792
1782943358723911200,3.6549111328125,-0.10924188048541546,-0.015499712149892002,0.009330414681101682
1782943358733896000,3.66489599609375,-0.10789397300779818,-0.003714216483850032,0.008026987949316389
1782943358743881200,3.674881103515625,-0.10594751511514186,0.0029679281611926854,0.0037479429402272214
1782943358753866200,3.6848662109375,-0.10220715954303741,-0.004774447860196232,0.001775935047783423
1782943358763851300,3.694851318359375,-0.10520341874957084,-0.008672313815262168,0.00040697108240565283
1782943358773836000,3.7048359375,-0.08993979864418507,0.0053700391331687565,0.011420845338422804
1782943358783821000,3.714821044921875,-0.09697393506467342,0.00212477360162884,0.009997347307368181
1782943358793805000,3.72480517578125,-0.09996551809608936,-0.0001755392299965024,-0.0032873922067927193
1782943358803790000,3.7347900390625,-0.11702478944659232,0.002071235049795359,-0.0000073384896619245405
1782943358813775000,3.744775146484375,-0.09263035290241241,0.0046188919723033905,0.006851655993051826
1782943358823760100,3.754760009765625,-0.1019067152917385,-0.002489423929248005,0.001918978513975162
1782943358833745200,3.7647451171875,-0.09652326868772507,-0.004886475133616477,-0.0003843391254893504
1782943358843730200,3.774730224609375,-0.0993663831591606,-0.006242419787216931,0.007236949533189181
1782943358853715200,3.784715087890625,-0.09547522093951702,-0.0025382497733458876,-0.003566355278645642
1782943358863700200,3.7947001953125,-0.10130874939858912,0.00037833179309964177,0.014583035696391015
1782943358873685200,3.804685302734375,-0.10115852727293968,-0.0056175658871419724,0.001726940240326803
1782943358883669200,3.814669189453125,-0.09532207620441913,0.001406560595985502,0.00615213398814667
1782943358893654000,3.824654052734375,-0.10415361743569373,-0.0063931351032108065,0.00567570069899084
1782943358903639000,3.83463916015625,-0.10116086536049843,-0.007460837399959563,0.008120627899386454
1782943358913624000,3.8446240234375,-0.09771920047402381,-0.014949877981096505,0.01035899739372544
1782943358923609000,3.854609130859375,-0.09502338551878929,-0.0045847339743748305,0.006615280820755288
1782943358933594000,3.864593994140625,-0.10100772062540053,0.0035754290676675736,0.005677232785662636
1782943358943579100,3.8745791015625,-0.10085749849975109,0.00026299831774085757,0.008730871035507879
1782943358953564200,3.884564208984375,-0.09936287602782248,-0.0035702779685147104,0.00023391378715168683
1782943358963549200,3.894549072265625,-0.0998112043172121,0.000727711486350745,0.009944132982520386
1782943358973533200,3.904533203125,-0.08829203143715858,-0.007395498812478035,0.010922204784036148
1782943358983518200,3.914518310546875,-0.09682312841713428,-0.0014735796838998795,0.0038041072739870285
1782943358993503000,3.9245029296875,-0.10759995849728583,-0.0030046069097705184,0.006333440805226564
1782943359003488000,3.934488037109375,-0.09667641342282295,-0.004060363040398806,0.002552369630243629
1782943359013473000,3.94447314453125,-0.10026713139116764,-0.0018105017543770371,0.0013455419905949383
1782943359023458300,3.954458251953125,-0.0987701708316803,0.003229373842664063,0.0002503557485877536
1782943359033443300,3.964443359375,-0.09712357266843319,-0.00187998679401353,0.0019598950462532227
1782943359043428000,3.974427978515625,-0.11044131940305232,-0.002153689168859273,0.012998451652377844
1782943359053412000,3.984412109375,-0.09937281289994716,-0.007629545030370354,0.010940203948318957
1782943359063394000,3.99439404296875,-0.10431085382401943,0.0007461604584939778,-0.0026904903261456637
1782943359073379000,4.004379150390625,-0.10475918211340904,-0.0036048926241695877,0.0016751210048329085
1782943359083364400,4.0143642578125,-0.09114391373693942,-0.006696081838849932,0.014016380540246608
1782943359093349000,4.02434912109375,-0.10132102435827255,-0.008996960926055907,-0.003499112428445369
1782943359103334100,4.034334228515625,-0.09758534496128558,0.0029201069640927015,0.012132302093005273
1782943359113318100,4.044318115234375,-0.08322130404412746,0.0012940218659117817,0.001863350753043778
1782943359123303200,4.05430322265625,-0.09249883547723292,-0.0003106003191322088,0.003863977385195903
1782943359133288200,4.0642880859375,-0.0983341175019741,0.0005402626228518784,0.0021429006300750187
1782943359143273200,4.074273193359375,-0.10297171417474746,-0.005488167353812605,0.01113135402268963
1782943359153258000,4.084258056640625,-0.09863163914382457,-0.005080426803138107,0.005013973970804363
1782943359163243000,4.094242919921875,-0.0938420667797327,-0.0006334938642568885,0.01447441280632047
1782943359173228000,4.10422802734375,-0.10296703799962997,0.008980649112071842,0.005114555118314456
1782943359183213300,4.11421337890625,-0.10162497574090958,0.000030249007791280744,0.005497024230414535
1782943359193197300,4.124197265625,-0.10282383013665676,0.0004020779948681593,0.000580176791420672
1782943359203182300,4.134182373046875,-0.09594283845126628,-0.0059231612375937395,0.002790797479019966
1782943359213167000,4.1441669921875,-0.10192834260165691,0.00021782573545351623,0.006120398559456225
1782943359223152000,4.154152099609375,-0.09295476255118847,0.0037089375205338,0.025219386443484107
1782943359233137200,4.16413720703125,-0.09848843128085136,0.009719959704671054,0.009201717117382213
1782943359243122200,4.1741220703125,-0.10312544343173503,-0.009942205886915325,0.004295452721195761
1782943359253107000,4.18410693359375,-0.09773615160882472,-0.009467683710344135,0.000046547122043557464
1782943359263092000,4.194092041015625,-0.10790800153315067,-0.0007770122544839978,0.011340523810940794
1782943359273077200,4.2040771484375,-0.0996802714139223,-0.0036880773955956098,0.007432798615563661
1782943359283061000,4.21406103515625,-0.10402093096673488,-0.0020064627178944645,0.003237579982005991
1782943359293046300,4.22404638671875,-0.102224695199728,0.00021002602148801087,0.0004969303712015972
1782943359303031300,4.23403125,-0.1001291842252016,-0.0023524996765889226,0.004473900860908907
1782943359313016000,4.24401611328125,-0.09204583101272583,-0.006211074800882488,0.011256110630230978
1782943359323001000,4.2540009765625,-0.09728431618809699,-0.005137618616782129,-0.006505927278322633
1782943359332986000,4.263986083984375,-0.10566168391108512,0.004194218553137034,0.0016843295078841037
1782943359342971100,4.27397119140625,-0.1013227779239416,-0.004937328538019209,0.006399265733186621
1782943359352956200,4.2839560546875,-0.1061111812442541,-0.000281100230012089,0.002204891916422639
1782943359362940200,4.293940185546875,-0.10087912580966948,-0.003069708035234362,0.0019104755471111275
1782943359372925000,4.303925048828125,-0.10536883844435214,-0.001526497181225568,0.010396473010035696
1782943359382910200,4.31391015625,-0.09399579603672027,0.0023317674158141017,0.002008245966315735
1782943359392895200,4.323895263671875,-0.09608896892368793,-0.0008556304486468434,-0.000994943021214567
1782943359402880300,4.33388037109375,-0.11030571032464503,-0.0011218801693990827,-0.003517552267434075
1782943359412865300,4.343865234375,-0.10012976874709129,0.001103540795110166,0.010428886575449723
1782943359422850000,4.35385009765625,-0.10851064360141753,0.0013236315528862177,0.007459305313287768
1782943359432835000,4.3638349609375,-0.0983387936770916,0.0029492417270317673,0.0031579845403088254
1782943359442820000,4.373820068359375,-0.10178221212923526,-0.0044592992301099,0.0003199892019852996
1782943359452804000,4.38380419921875,-0.10507131680250167,0.001547722632344812,-0.0019326668293215333
1782943359462789000,4.3937890625,-0.10507190132439136,-0.002907101352047175,0.00776899003367871
1782943359472774100,4.403774169921875,-0.10746259585320948,-0.0003723039111122489,0.006784102615597657
1782943359482759200,4.41375927734375,-0.0981856489419937,0.0000944550841115415,0.004509465364634525
1782943359492744200,4.423744140625,-0.09728957688510417,-0.00013387377904728055,0.0017832735374453477
1782943359502729200,4.433729248046875,-0.11060615457594394,0.0010089395805262028,0.0023334364998037925
1782943359512714200,4.44371435546875,-0.10237550184726714,0.00037445933558046815,0.003070121310476679
1782943359522699300,4.45369921875,-0.0989355905264616,0.001199201455619186,0.009429486574826295
1782943359532684300,4.463684326171875,-0.10327858816683291,0.004343636961188167,0.008326429836906027
1782943359542668300,4.473668212890625,-0.09879121361970901,0.0027665238375775515,0.0033311240339535288
1782943359552653300,4.4836533203125,-0.09894202026724815,-0.008711458515562117,-0.002930532459984533
1782943359562638300,4.493638427734375,-0.10268471392691135,-0.0007174823532812297,-0.005679842584568541
1782943359572623400,4.503623291015625,-0.0992448026061058,-0.0027377909334376452,-0.000751176843617577
1782943359582608100,4.513608154296875,-0.09834931507110595,-0.009842161312233656,0.0011389226357452571
1782943359592593200,4.52359326171875,-0.09670388595163822,0.0005149820511229336,0.001268403367465362
1782943359602578200,4.533578125,-0.09850070624053478,0.0056458238672465084,0.0038675301823066547
1782943359612563500,4.5435634765625,-0.09370996483266353,-0.00343620326006785,0.014009590039856265
1782943359622547200,4.553547119140625,-0.09774784204661846,-0.003680679540429264,0.018839062872785143
1782943359632532500,4.563532470703125,-0.0913105024755001,0.00459249715572223,0.012271215090062468
1782943359642517200,4.573517333984375,-0.09849369197785854,0.005507401777245104,0.009818485892412718
1782943359652502300,4.583502197265625,-0.09145780199170112,-0.0025530272173695263,0.006608688966475892
1782943359662487300,4.5934873046875,-0.0983423008084297,-0.007307035077735781,-0.0021617400445742532
1782943359672472300,4.603472412109375,-0.10193652590811252,-0.005996281272731721,0.008924662874825299
1782943359682457000,4.61345703125,-0.11615209826529026,0.0026884171000681814,0.008656849101360421
1782943359692442000,4.623442138671875,-0.10193886399567127,0.004140406006667763,0.0012920171384932472
1782943359702428400,4.633428466796875,-0.09999532871246337,-0.00043998058615252373,0.0026923717559780925
1782943359712412400,4.643412353515625,-0.09849895267486572,-0.005232402494456619,0.0020627229497767983
1782943359722397400,4.6533974609375,-0.09026713090240955,0.007572755075525492,0.003704962315026205
1782943359732382200,4.66338232421875,-0.09595394436717034,0.0005624561883509158,0.006719449014705605
1782943359742367200,4.6733671875,-0.09984510658681392,0.0020732626101002097,0.009537650523881893
1782943359752352300,4.683352294921875,-0.09505904135406017,-0.004127053334750235,-0.0023878221517195926
1782943359762337300,4.693337158203125,-0.09177169024646281,-0.0030248825128190216,0.0069442867295467295
1782943359772322300,4.703322265625,-0.10403905114531517,0.008243877536430954,0.0061597145064035425
1782943359782307000,4.71330712890625,-0.10119418310821056,0.005799132999125867,0.01075695176932495
1782943359792292400,4.723292236328125,-0.10134265166819095,0.003054656596574932,0.007467890478542539
1782943359802276400,4.7332763671875,-0.10134089810252189,-0.0010461480520665646,-0.003439233184081968
1782943359812261400,4.743261474609375,-0.10268939010202884,0.0018897410030476749,0.006770932606770657
1782943359822246400,4.753246337890625,-0.1023901148945093,-0.0016922822021879255,0.006254037159774452
1782943359832231200,4.763231201171875,-0.09879939692616461,0.000588083819951862,-0.00023312148599652572
1782943359842216200,4.77321630859375,-0.09625672670602797,-0.010433715730905532,0.007292275900021195
1782943359852201200,4.783201171875,-0.1017979942202568,-0.008883307951129972,0.00008467119232518599
1782943359862186200,4.793186279296875,-0.0934194574534893,0.007605725763365626,-0.0044443208566866815
1782943359872171300,4.803171142578125,-0.10284604196846485,0.004888119101431221,-0.0011702128231525421
1782943359882156300,4.81315625,-0.1095791496157646,0.002796480584423989,0.008475055943801999
1782943359892140000,4.82314013671875,-0.10733400103747844,-0.009208941442612558,0.0013884929330437443
1782943359902125300,4.833125244140625,-0.11062836640775203,-0.0026836678597144783,0.0023044136180076745
1782943359912110300,4.8431103515625,-0.10090601381659507,-0.004753953061439097,0.004785608575027436
1782943359922095400,4.853095458984375,-0.08414601767361164,-0.00254089838815853,0.007735921164427418
1782943359932080400,4.863080322265625,-0.08788345063626765,-0.0021061784990131856,0.0055862551501370036
1782943359942065200,4.873065185546875,-0.09805822317004204,-0.001523081381432712,0.0010827514521195552
1782943359952050200,4.88305029296875,-0.1040466499298811,0.006689871293772012,0.003986026012420188
1782943359962035200,4.89303515625,-0.10105331333279609,0.000526818619389087,0.010506034331733825
1782943359972019200,4.903019287109375,-0.09836275907456875,0.004692943589203059,0.0074090820965473534
1782943359982004200,4.913004150390625,-0.10450140796005725,0.002126947292406112,0.014902782869781367
1782943359991989200,4.9229892578125,-0.10121171876490115,-0.0012299801863729953,0.009158960254467092
1782943360001974300,4.932974365234375,-0.10644961941838264,-0.0016441504778340458,0.007733717790897935
1782943360011959300,4.942959228515625,-0.09671966804265976,0.00375491382041946,0.004101905193761922
1782943360021944300,4.9529443359375,-0.09432429733872413,-0.009002568682935088,0.006088466767943464
1782943360031929300,4.962929443359375,-0.1012099651992321,-0.005916658431570977,0.004383957555133384
1782943360041914000,4.9729140625,-0.10315525404810905,-0.002150784825719893,0.007407808021490927
1782943360051899100,4.982899169921875,-0.10150573327541351,0.0041356019673869015,0.0034209988410701044
1782943360061883100,4.992883056640625,-0.09701309803128241,0.009696962421573698,0.005551021723262966
1782943360071868200,5.0028681640625,-0.11062836640775203,0.0015465718548744916,-0.0031270551125053316
1782943360081853200,5.012853271484375,-0.09177285929024219,-0.001783997339941561,0.007795266119251027
1782943360091838500,5.02283837890625,-0.10045067126452922,-0.008431216802075505,0.01242018597354181
1782943360101823200,5.0328232421875,-0.10359247642159461,-0.006230400555860251,0.00874040376554476
1782943360111808300,5.042808349609375,-0.09790507843494414,-0.00041915699383243915,0.008857022732403129
1782943360121793300,5.052793212890625,-0.09491057279407977,0.0018953670262359082,0.015733751517918424
1782943360131778300,5.0627783203125,-0.10059913982450962,-0.0002693915259093046,0.008299345467158128
1782943360141762300,5.07276220703125,-0.09850888954699039,0.010558967812079935,0.0037828612732701003
1782943360151747300,5.082747314453125,-0.09880874927639961,0.0035439562171697614,0.008739892308891285
1782943360161732000,5.092732177734375,-0.09342413362860678,0.0030337782053276893,0.00518575262442464
1782943360171717000,5.102717041015625,-0.09776011700630187,-0.006379618034511804,-0.00024246013649972155
1782943360181702400,5.112702392578125,-0.09476853397488594,-0.0036283282986842094,0.003993056258116848
1782943360191687400,5.1226875,-0.09701368255317211,-0.008116908422205596,0.004155114952032454
1782943360201672200,5.132672119140625,-0.09252864609360695,0.002060147400200367,0.009382311548409052
1782943360211657200,5.1426572265625,-0.09687339729964732,-0.004613393813278526,-0.0013972310786368324
1782943360221642200,5.152642333984375,-0.10794891806542872,0.0002891739386133849,0.0031389327799668534
1782943360231626200,5.162626220703125,-0.10256254885196685,-0.004045987455174327,0.007958190179558004
1782943360241611300,5.172611328125,-0.10376081872582435,0.001549275268614292,0.009106472015404142
1782943360251596300,5.18259619140625,-0.10061901356875896,0.006355506506562233,0.00811416619255906
1782943360261581000,5.1925810546875,-0.1019675055682659,-0.008683839856274425,0.0037314416132867333
1782943360271566000,5.202566162109375,-0.09852759424746035,-0.008892532437201589,0.011226137900364119
1782943360281551400,5.21255126953125,-0.10241700290143489,-0.004147822128143162,0.010915058090619276
1782943360291536400,5.222536376953125,-0.09134674283266067,-0.00657057402934879,0.0029544247922254725
1782943360301521400,5.232521484375,-0.09134674283266067,-0.004308072457462549,-0.0019083178393542765
1782943360311505400,5.24250537109375,-0.09987667076885699,0.0024201580853201446,0.0060840280548436565
1782943360321490200,5.252490234375,-0.09733458507061005,-0.0000481682569719851,-0.0006228605890995822
1782943360331475200,5.26247509765625,-0.09404372683167457,0.0026959976183250547,0.0016076954915421084
1782943360341460200,5.272460205078125,-0.10646364794373511,-0.002815842872019857,0.004879935794975608
1782943360351445200,5.2824453125,-0.10002923098206519,0.0036308307830244303,0.002254336531739682
1782943360361430300,5.29243017578125,-0.10362111799418926,-0.0021783669523894786,0.007341101744119077
1782943360371415300,5.302415283203125,-0.1076625023394823,0.0010020531820133327,0.009758924025169107
1782943360381400300,5.312400390625,-0.09928338105082511,0.010890994511730968,0.0016512537887669167
1782943360391385300,5.32238525390625,-0.0956938321262598,0.0025754947775043545,0.0010796119302511214
1782943360401369300,5.332369384765625,-0.09823942495584487,0.003114460492413491,0.0037091841157060115
1782943360411354400,5.342354248046875,-0.10362930130064486,-0.0053112033517099914,0.009951992061990312
1782943360421339400,5.35233935546875,-0.10961246736347674,0.0019376352653838692,-0.0023060667189769447
1782943360431324200,5.36232421875,-0.11185878498554229,-0.0005284808535128832,-0.009357652031187899
1782943360441309200,5.37230908203125,-0.09345335972309111,-0.0003730528297834098,-0.0027001623367890713
1782943360451294200,5.382294189453125,-0.10347849465310573,0.003206212162785232,0.011654738575976807
1782943360461279200,5.392279296875,-0.1090180086016655,0.0016811762862838804,0.01036574222834315
1782943360471264300,5.40226416015625,-0.09943711030781269,-0.0025301760647445915,0.006614940610749181
1782943360481249300,5.412249267578125,-0.09180442347228526,-0.0024365794971585274,0.009890496249275748
1782943360491233300,5.4222333984375,-0.09718787007629871,0.004625449577253311,0.002959053018281702
1782943360501218300,5.43221826171875,-0.09344692998230457,-0.0007582162224687635,0.012505930311523843
1782943360511203300,5.442203369140625,-0.0903039557814598,0.0032573212955147026,0.00830728446173016
1782943360521192700,5.452192626953125,-0.09673895726501941,-0.0010679945576936006,0.0031361722840112633
1782943360531177700,5.462177734375,-0.09838497090637684,-0.0030000951314345,0.0028207976083504034
1782943360541162800,5.472162841796875,-0.0949444750636816,-0.004750482462719083,0.007513805129635147
1782943360551147800,5.482147705078125,-0.10182546674907207,-0.002144903074204922,0.016923212464235258
1782943360561132500,5.492132568359375,-0.09927928939759731,-0.0016382869926281273,0.011798368847346865
1782943360571116800,5.50211669921875,-0.09239654414653778,-0.00012251213481649756,0.0031174675835412926
1782943360581101600,5.5121015625,-0.1042161612778902,-0.001369242526590824,0.0004089301440515555
1782943360591086800,5.5220869140625,-0.10766191781759261,0.00550743830986321,0.005108531802904326
1782943360601071900,5.53207177734375,-0.09344809902608395,-0.0038303354104980824,-0.0007273826927877963
1782943360611057000,5.542056884765625,-0.10092764112651348,-0.002287343752197921,0.005220533960149623
1782943360621041700,5.552041748046875,-0.09434650917053222,0.004861833882704377,0.006496154802979435
1782943360631026700,5.562026611328125,-0.09329904594421386,0.0026326135259121656,0.007066061362135224
1782943360641011700,5.57201171875,-0.0979378116607666,0.0005154204425401985,0.0051531449794769285
1782943360650996700,5.581996826171875,-0.09509411266744136,0.0036030477269552645,0.0046420376691618
1782943360660980700,5.591980712890625,-0.0918026699066162,0.007516403512097895,-0.0003138334558345377
1782943360670965800,5.6019658203125,-0.10572072062194347,0.006089914372935891,0.005082041088200639
1782943360680950500,5.611950439453125,-0.10482231047749518,-0.0002338452884927392,0.0040771178123774005
1782943360690935800,5.621935791015625,-0.0979378116607666,-0.0005867138467729092,0.00694944924514275
1782943360700920800,5.6319208984375,-0.09284662600159645,0.002136372707877308,0.0003152011457248591
1782943360710905900,5.64190576171875,-0.11214753879904746,0.003365695307124406,0.008821880637074354
1782943360720891000,5.651890869140625,-0.10750409690737724,-0.0057968314441852265,0.00756204188526608
1782943360730875600,5.661875732421875,-0.11243979974389076,-0.0018523133357986807,-0.0015408659165841525
1782943360740860700,5.671860595703125,-0.10869769060611724,-0.0032404797585681077,0.006864994965237565
1782943360750844700,5.6818447265625,-0.091933602809906,0.0038912718174979087,0.006525054387189448
1782943360760829700,5.69182958984375,-0.09821721312403678,-0.001688391478359699,-0.000864859501295723
1782943360770814700,5.701814697265625,-0.10584814639389514,-0.0008377294657751917,0.002908510141132865
1782943360780799700,5.7117998046875,-0.10973697052597998,0.0010437734318897128,0.005842522332991939
1782943360790784800,5.72178466796875,-0.10015607223212718,-0.0000037445933558046816,0.012215701493562664
1782943360800769800,5.731769775390625,-0.09791209269762038,-0.002679009950906038,0.007006828288454562
1782943360810754800,5.7417548828125,-0.10225392129421233,0.00488947080830112,-0.004036566606280394
1782943360820739800,5.75173974609375,-0.09447510398626327,-0.00099892964316532,0.0011461606607073918
1782943360830724600,5.761724609375,-0.10584405474066734,-0.0023496501323767003,0.007618770191317889
1782943360840708600,5.77170849609375,-0.08878536791205406,-0.004558649685047567,0.010114696926588658
1782943360850693600,5.781693603515625,-0.0956675286412239,-0.014796952441707253,0.0023468713701120577
1782943360860678700,5.7916787109375,-0.09836334359645843,0.00011136968629434705,-0.005598491293913685
1782943360870663700,5.80166357421875,-0.10151216301620006,0.005768993589188903,0.00024304237510077654
1782943360880649000,5.81164892578125,-0.09702595751285552,-0.013270108200609683,-0.0032444298479007553
1782943360890633700,5.8216337890625,-0.10196575200259685,-0.005411558453645557,0.0074864353488083
1782943360900618800,5.83161865234375,-0.09807634334862232,-0.001331449533160776,0.004709248553321231
1782943360910603800,5.841603759765625,-0.09253858296573161,0.0023796434118412433,0.0041994883832987395
1782943360920587800,5.851587890625,-0.09927344417870045,0.006628587826900184,0.013476645357068627
1782943360930572800,5.86157275390625,-0.10900164198875427,0.0017605068664997814,0.00492592807788169
1782943360940557800,5.871557861328125,-0.10571195279359817,-0.001425995948817581,0.0023435902843484653
1782943360950542600,5.88154248046875,-0.10062602783143519,-0.005390880991797894,0.0022076683953986503
1782943360960527600,5.891527587890625,-0.09613631519675254,0.0028080066254362462,0.0076425346593954595
1782943360970513000,5.901512939453125,-0.09613865328431129,-0.002329611991345882,0.007246014189056586
1782943360980498000,5.911497802734375,-0.09718553198873996,0.006037837125826627,0.0034408657354535535
1782943360990482700,5.921482666015625,-0.09089958358705043,0.003458926548529416,0.0022161348296445794
1782943361000467700,5.9314677734375,-0.0938940892279148,0.0017350070990622042,0.009569369969551917
1782943361010451700,5.94145166015625,-0.10212357291281222,-0.0035320283173583445,0.0033672684929915704
1782943361020436700,5.951436767578125,-0.10526713163554668,0.0014430384151637554,-0.004931622599728871
1782943361030421800,5.961421875,-0.09957914912700652,0.0033286146997474134,0.004142862825235352
1782943361040406800,5.97140673828125,-0.09882979206442832,0.0032795331273227928,0.01682954283141298
1782943361050391600,5.9813916015625,-0.09748130006492137,0.004098557892628014,0.009697357430506962
1782943361060376600,5.99137646484375,-0.09479074580669403,-0.0010087751837447286,0.0009876068148412741
1782943361070361900,6.00136181640625,-0.09867781637310981,0.006155965346470475,-0.005240092610567808
1782943361080347000,6.011346923828125,-0.09912672918438911,0.0016468356252647936,0.0033079714872292242
1782943361090332000,6.021331787109375,-0.09164835612773894,-0.004183898088522255,0.008072368310869205
1782943361100316000,6.03131591796875,-0.10347264943420886,-0.003168035576865077,0.005672967602498829
1782943361110300700,6.04130078125,-0.0964385130137205,0.0035205753415822982,-0.0018087299223989246
1782943361120285700,6.05128564453125,-0.10870704295635222,-0.008682396817859261,0.007169313957344274
1782943361130270700,6.061270751953125,-0.10586392848491669,-0.0003067643942311406,0.0024580698097590357
1782943361140255700,6.071255859375,-0.09119944331645966,0.0029769151852466163,-0.0033482053162064403
1782943361150240800,6.08124072265625,-0.09718260937929153,0.002410276012122631,-0.0027623933684430084
1782943361160225800,6.091225830078125,-0.09583411737978458,-0.00946784810712561,-0.0018947825043462215
1782943361170210800,6.1012109375,-0.09583587094545364,0.005700312267150729,0.0092034798162058
1782943361180195800,6.11119580078125,-0.10002513932883739,0.0037208106214180587,0.005155291270790621
1782943361190179800,6.121179931640625,-0.0883516526699066,0.006792765412665903,0.010592605220200493
1782943361200164900,6.131164794921875,-0.10166881488263606,-0.007159808626770973,0.008575609691848512
1782943361210150000,6.14114990234375,-0.10555588544905185,0.0009132241210900246,0.009000552539073396
1782943361220134700,6.151134765625,-0.09777356100976467,-0.0033138189894147217,0.002553744169999845
1782943361230119700,6.16111962890625,-0.09822364286482334,-0.0007202405659481883,-0.001493825604196172
1782943361240104700,6.171104736328125,-0.10600538278222084,-0.002640468038804829,0.0022693856871104797
1782943361250089700,6.18108984375,-0.09657996731102467,-0.0021357699196785686,0.001361474778666161
1782943361260074800,6.19107470703125,-0.10406301654279232,-0.001047919884044677,0.008638226599281188
1782943361270058800,6.201058837890625,-0.10526070189476013,-0.006126465257350355,-0.008102067046100274
1782943361280043800,6.211043701171875,-0.09269114317893981,-0.009103490040451287,-0.008300322714692446
1782943361290028800,6.22102880859375,-0.10900222651064395,0.003057524407096207,0.011925000034854747
1782943361300013800,6.231013916015625,-0.09164484899640082,0.0012764314102940261,0.0018819686885457486
1782943361309998800,6.240998779296875,-0.09404021970033645,0.002196724592987448,0.005653813094168436
1782943361319983600,6.250983642578125,-0.10675824697613716,-0.004134816516097635,0.009110328489902895
1782943361329968600,6.26096875,-0.10780395663678645,-0.0020823409656994044,0.01189600911909947
1782943361339953700,6.27095361328125,-0.09672551326155662,-0.006647420391533524,0.009088904392672702
1782943361349939000,6.28093896484375,-0.09792086052596569,0.0010499291780404745,-0.007841603178740478
1782943361359922700,6.290922607421875,-0.09268354439437389,-0.0022440891323611137,0.0050005550835165195
1782943361369908000,6.300907958984375,-0.09971417368352413,-0.0011156696243211626,0.006313295349630061
1782943361379892700,6.310892822265625,-0.09881634806096554,-0.00022984496681019662,0.011115916708251461
1782943361389877800,6.320877685546875,-0.11004092190861701,-0.00044989919196814296,0.010111237744311802
1782943361399862800,6.33086279296875,-0.10600538278222084,0.0013705942334607242,0.00407417008675402
1782943361409847800,6.340847900390625,-0.10376198776960373,-0.004409066880214959,-0.0013294037065468727
1782943361419832800,6.350832763671875,-0.1022644426882267,-0.0038642924790270624,0.012651177151245065
1782943361429817600,6.360817626953125,-0.10286065501570701,-0.0060722143194638185,0.01764278630990302
1782943361439802600,6.370802734375,-0.09028817369043826,0.0009867825476452708,0.010336322054325137
1782943361449786600,6.38078662109375,-0.10016542458236218,0.00012291399361565709,0.008119047863653394
1782943361459772000,6.39077197265625,-0.10944529410302638,-0.007429985603969544,0.0058039210553863085
1782943361469757000,6.4007568359375,-0.09418693469464778,0.0009997881596907972,0.0004625326279667206
1782943361479741700,6.41074169921875,-0.09972177246809005,0.005884272265620529,0.0019878539155470205
1782943361489726700,6.420726806640625,-0.09059212507307529,0.0014636610780842602,0.0032190282618743365
1782943361499711700,6.430711669921875,-0.103310152348876,0.00023026509191840887,0.004183224518375937
1782943361509696800,6.44069677734375,-0.10106851090192794,-0.0005424728462472558,-0.0027257580023491755
1782943361519677200,6.45067724609375,-0.10136544802188872,0.0012963234208524226,0.009131307345849927
1782943361529662200,6.460662109375,-0.09059563220441341,-0.006162322022020816,0.010769592055189422
1782943361539646200,6.470646240234375,-0.09403905065655707,0.0013774623656645417,-0.0011750716613605618
1782943361549631200,6.48063134765625,-0.10421557675600052,0.003370024422369897,0.00959331025085412
1782943361559616000,6.490615966796875,-0.10256897859275341,0.009794851571787147,0.004652924389357212
1782943361569601000,6.50060107421875,-0.11110241366028785,0.0020320172842592,0.005352692989434581
1782943361579586000,6.5105859375,-0.09763444480001926,-0.003374189140833914,0.003291780687542632
1782943361589571300,6.5205712890625,-0.09464227724671363,-0.00019546777317300438,0.007218427495809737
1782943361599556000,6.53055615234375,-0.09179565564393996,-0.012776497731078416,0.00669825096304994
1782943361609541000,6.540541015625,-0.09583177929222583,0.004840699763130396,0.007358274357917253
1782943361619526100,6.550526123046875,-0.09867430924177169,0.0019713914045132695,-0.00015126330526545642
1782943361629510100,6.56051025390625,-0.09852350259423255,0.005227945515047758,-0.0005019810056546703
1782943361639495200,6.5704951171875,-0.09896657018661499,0.0016821078680455683,0.007620484941080212
1782943361649480200,6.580480224609375,-0.08673720321059226,-0.0029364735770039258,0.0036214898492326025
1782943361659465000,6.59046484375,0.6473229215145111,-0.012506412085425108,-0.13018703509224577
1782943361669450000,6.600449951171875,-0.9149602972328662,0.0495667073267512,0.0929329069124069
1782943361679435300,6.610435302734375,-0.4044809643566608,-0.0804067763463594,0.18147327795429155
1782943361689420300,6.620420166015625,0.31680268090367314,0.08714297099988907,-0.1798291274764575
1782943361699405300,6.6304052734375,-0.3949696241676807,-0.057568775463942436,0.10534739379752427
1782943361709390000,6.64039013671875,0.190998957195878,0.020723657343257217,-0.05659739141482859
