time,seconds_elapsed,z,y,x
1782943343751441200,0.088441162109375,-0.11123451560735702,0.0031475225117988882,-0.005051059144758619
1782943343761426400,0.098426513671875,-0.10075929882228374,-0.0018168036310002207,-0.010579695506277494
1782943343771411500,0.108411376953125,-0.10599661495387554,0.00041239845948293804,-0.007048690102226101
1782943343781396500,0.118396484375,-0.10584697735011576,0.0017297829346731304,0.000058127961982972916
1782943343791381200,0.12838134765625,-0.10210428369045257,0.0004380626237019896,-0.002579175438778475
1782943343801365200,0.138365234375,-0.0928267522573471,-0.004619750488828868,-0.007768186316080391
1782943343811350300,0.148350341796875,-0.10704174009263515,-0.0009031228521838784,-0.012255081372591667
1782943343821335300,0.158335205078125,-0.10090601381659507,-0.0012221622060984373,-0.012387635410809889
1782943343831320300,0.1683203125,-0.09566928220689296,-0.01242366570541635,-0.01041457720559556
1782943343841305300,0.178305419921875,-0.09491875610053539,0.0005241517382673919,-0.007126993202557787
1782943343851290400,0.188290283203125,-0.10015665675401687,-0.0034912944481708106,-0.0011743181761121376
1782943343861275400,0.198275390625,-0.10299801765978336,-0.0023548194978386164,-0.005034135409421287
1782943343871260400,0.208260498046875,-0.09611118075549602,-0.004130085542052984,-0.004232687400002032
1782943343881245400,0.218245361328125,-0.10373919141590594,0.003967040467448532,-0.01010713695792947
1782943343891230500,0.22823046875,-0.0950619639635086,0.005720240810327231,-0.007044150924426503
1782943343901214500,0.23821435546875,-0.09476327327787876,0.0006528926844708621,-0.004309556595073081
1782943343911199200,0.24819921875,-0.10433949539661407,0.0012590236177667975,-0.011199380040890536
1782943343921184300,0.258184326171875,-0.10673428157866001,-0.0015383885484188794,-0.0035696021150797602
1782943343931169300,0.268169189453125,-0.11332067423164843,0.0003501834108494222,-0.012668658009008503
1782943343941154300,0.278154296875,-0.10927987440824508,0.0003440641973167658,-0.006003400566685013
1782943343951139300,0.288139404296875,-0.10209668490588665,-0.00564847248205915,-0.014961678016744553
1782943343961124400,0.298124267578125,-0.10089841503202915,-0.005864380255062133,-0.002387730820174329
1782943343971109400,0.308109375,-0.08892682220935821,-0.0013759097293950617,0.00020659195538610218
1782943343981094400,0.318094482421875,-0.09595745149850844,0.0006354118267074227,-0.00799623661802616
1782943343991078400,0.328078369140625,-0.10478431655466557,-0.004054536087810993,-0.0027371561791980636
1782943344001063400,0.3380634765625,-0.09790098678171634,-0.009585574468970298,-0.002481975841731764
1782943344011048200,0.348048095703125,-0.09879881240427493,-0.009279796455428004,-0.00675850238346029
1782943344021033200,0.358033203125,-0.09745090492665767,-0.0022615334575064477,-0.01281176997385919
1782943344031018200,0.368018310546875,-0.09865034384429454,-0.010210775428917258,-0.005130572388065047
1782943344041003500,0.37800341796875,-0.09580956746041774,-0.004120477463491261,-0.0036147198984399437
1782943344050988500,0.387988525390625,-0.09895020357370377,-0.002535436761751771,-0.009425196275487541
1782943344060973300,0.397973388671875,-0.09775193369984626,-0.004389229668583721,-0.0069199582891771565
1782943344070958300,0.407958251953125,-0.09700140759348869,-0.003732135733030736,-0.012567289126920513
1782943344080943400,0.417943359375,-0.10627543189525604,0.0028376711113378404,-0.007690280507970601
1782943344090927400,0.42792724609375,-0.0963993500471115,0.0035921610067598518,-0.018133544951933436
1782943344100912400,0.437912353515625,-0.09370353509187698,0.0012550415623933076,-0.007476304397149943
1782943344110897400,0.4478974609375,-0.10192658903598785,0.004288216979522258,-0.004409167344914749
1782943344120882200,0.457882080078125,-0.09354512965977191,-0.0004431589239276945,-0.0007053443909157067
1782943344130867200,0.4678671875,-0.0969832874149084,-0.002384502250049263,0.0020993560325819997
1782943344140852500,0.4778525390625,-0.10446399855911731,-0.003160619455389678,-0.010700855934224091
1782943344150837500,0.48783740234375,-0.0977285528242588,-0.008455127400625496,-0.01102153468937613
1782943344160822300,0.497822265625,-0.10416180074214934,0.0007669657845050097,-0.011175400943681597
1782943344170807300,0.507807373046875,-0.09952303502559662,-0.00518434383533895,-0.0009510445139836519
1782943344180792300,0.517792236328125,-0.09967734880447388,-0.0032009697320871055,0.001758136812900193
1782943344190776300,0.5277763671875,-0.09264262786209583,-0.0007099931665696203,-0.011156180219980888
1782943344200761300,0.53776123046875,-0.09967676428258418,-0.0009574833879247307,-0.000382400613441132
1782943344210746400,0.547746337890625,-0.10611001220047474,-0.005041957956273108,-0.00591230648343917
1782943344220731100,0.557731201171875,-0.09922492886185645,0.00039089901372790336,-0.006460332287638448
1782943344230716400,0.56771630859375,-0.08456044369339942,-0.004991616008523852,-0.006300008893082849
1782943344240701400,0.577701416015625,-0.10431026930212974,-0.0026629721315577625,-0.0069576142852893095
1782943344250686500,0.5876865234375,-0.10895195762813091,-0.007704729158431291,-0.009008875126135536
1782943344260671500,0.59767138671875,-0.08770458693802356,-0.004304821054451167,-0.01571973897558637
1782943344270656300,0.60765625,-0.10730886659622192,-0.001543813642207533,-0.00013810242959298193
1782943344280641300,0.617641357421875,-0.10267126992344856,-0.00015760171450674533,-0.008246955409506335
1782943344290625300,0.627625244140625,-0.10596505077183246,-0.0020493520115502178,-0.008280624783667735
1782943344300610300,0.6376103515625,-0.10596621981561183,-0.0036451333030126988,-0.00038398521575145424
1782943344310595300,0.64759521484375,-0.10865969668328762,-0.002465787325333804,-0.012256414813152514
1782943344320580400,0.657580322265625,-0.10267477705478667,-0.0013640000958926974,-0.01026565198788885
1782943344330565400,0.6675654296875,-0.09205342979729175,-0.003057707070186734,-0.01016454340070486
1782943344340550400,0.67755029296875,-0.08965805909335613,-0.003694982060417533,-0.008271190235042013
1782943344350535400,0.687535400390625,-0.10118249267041683,0.0031241599025204777,-0.0025483190762111917
1782943344360520400,0.6975205078125,-0.09773965874016284,0.008314257625211029,-0.00942591322811786
1782943344370505200,0.707505126953125,-0.104024438098073,-0.004257767042331397,0.004166622726735659
1782943344380490200,0.717490234375,-0.0926525647342205,-0.004855312810372561,-0.015765482380031608
1782943344390474200,0.72747412109375,-0.10223112494051456,-0.005574566995631903,-0.010995678728912025
1782943344400459300,0.737459228515625,-0.11121113473176955,0.0023851598371751603,-0.0005566155360313132
1782943344410444300,0.7474443359375,-0.11210837583243846,0.00011896847086027264,-0.008715020445827395
1782943344420429600,0.7574296875,-0.10522387701570987,-0.004249638534802943,-0.007825912419264204
1782943344430414300,0.767414306640625,-0.1050742394119501,0.0030614699298515914,-0.010431263478915206
1782943344440399400,0.7773994140625,-0.09983575423657894,-0.002217822179943323,0.0037386476722080257
1782943344450384400,0.78738427734375,-0.09459785358309745,-0.0076602324295789,-0.008465055139595641
1782943344460369400,0.797369384765625,-0.09788812730014324,-0.007727580311056226,-0.0074012572664069005
1782943344470354400,0.8073544921875,-0.10028115991652012,-0.0005878828905522823,-0.004582656181720085
1782943344480338400,0.81733837890625,-0.10836217504143714,0.002260839337762445,-0.005527919408888556
1782943344490323200,0.8273232421875,-0.0950485199600458,0.0010812193654477595,-0.006915953400917351
1782943344500308200,0.83730810546875,-0.0986392379283905,0.0022467925461009145,-0.0036027691657422108
1782943344510289200,0.8472890625,-0.10088087937533854,-0.0038393954997882245,-0.0012481505973031743
1782943344520274200,0.857274169921875,-0.09249941999912262,0.002803841906972229,-0.01493960774883162
1782943344530259200,0.86725927734375,-0.09474456857740879,0.004447499194461852,-0.009075382757396437
1782943344540244200,0.877244140625,-0.09339841466546057,-0.0030057759535498914,-0.005600500587909482
1782943344550229000,0.88722900390625,-0.10582067386507987,0.012506759145297109,-0.011428987545683047
1782943344560214000,0.897214111328125,-0.0969920552432537,0.0014115655646659434,-0.006480425227596424
1782943344570198000,0.907197998046875,-0.10926233875155449,0.0007972695912234484,-0.008331852647406048
1782943344580183000,0.91718310546875,-0.10522387701570987,0.0022120682925917206,-0.007338549027428962
1782943344590168300,0.927168212890625,-0.10462824921011925,-0.0009621595630422234,-0.009277727795927785
1782943344600153000,0.937153076171875,-0.09954057068228721,-0.004412683609407395,-0.017061614004638976
1782943344610138000,0.94713818359375,-0.08891571629345417,-0.0071407933990471064,-0.0043666114113992075
1782943344620123100,0.957123046875,-0.10193360329866409,0.004339399177487939,-0.004278321206592954
1782943344630108200,0.967108154296875,-0.10148235239982605,0.001739062219671905,-0.012669260797207243
1782943344640093200,0.97709326171875,-0.10057868155837059,-0.006392934173811227,-0.0005660135520389303
1782943344650078000,0.987077880859375,-0.09998071566522121,0.008726016763877123,-0.0194741230730433
1782943344660062000,0.99706201171875,-0.09160334794223308,0.002064987972099334,0.0021440719571430237
1782943344670047000,1.007046875,-0.09399521151483059,-0.0014992803807370365,-0.007870263017644173
1782943344680032300,1.0170322265625,-0.09040566259026526,-0.0009743249248713254,-0.012301391032617539
1782943344690017300,1.027017333984375,-0.09549217207431793,-0.0047263161358423525,-0.002432953634811565
1782943344700002300,1.037002197265625,-0.11090484526157378,-0.0075577401694841674,0.0004379986916203052
1782943344709987000,1.046987060546875,-0.08860825777947902,-0.005630973357986659,-0.007066910745506174
1782943344719972000,1.05697216796875,-0.10162556026279926,0.0017958339082077145,-0.0074955068545416
1782943344729957000,1.06695703125,-0.10237842445671558,-0.005083185015805065,-0.010181850728532298
1782943344739942100,1.076942138671875,-0.10836275956332683,-0.004663662695791572,-0.006360050250939093
1782943344749927200,1.08692724609375,-0.09788871182203292,-0.002681475902628153,-0.013201856136834248
1782943344759911200,1.0969111328125,-0.09534311899244785,-0.0030335224770009516,-0.006384760000510141
1782943344769896000,1.10689599609375,-0.09474281501173973,-0.005210355059430002,-0.00984311572688166
1782943344779881200,1.116881103515625,-0.09294541020095348,-0.006200535140559077,-0.013728697589109651
1782943344789866200,1.1268662109375,-0.09847849440872669,-0.005019545195065439,-0.011990936843957752
1782943344799851300,1.136851318359375,-0.10386661718785763,-0.0011176058530807495,-0.007928345313854515
1782943344809836000,1.1468359375,-0.09578735562860966,-0.0003367942063137889,-0.009354583291267045
1782943344819821000,1.156821044921875,-0.10207096594274044,-0.007411153039336204,-0.006492814351711422
1782943344829806000,1.16680615234375,-0.09473872335851193,-0.0009768822081387043,-0.005173758509242907
1782943344839791000,1.176791015625,-0.11224690752029419,-0.0019940598940476773,-0.016081302296975627
1782943344849776000,1.186776123046875,-0.10985212133824825,-0.004897106125485152,-0.010318537519173696
1782943344859760000,1.196760009765625,-0.1001250925719738,-0.0026646526319906113,-0.01241305297985673
1782943344869745200,1.2067451171875,-0.0851625012397766,-0.010235197484120726,-0.02047073746153619
1782943344879730200,1.216730224609375,-0.09548749589920043,-0.006071593264956027,-0.005418253055913373
1782943344889715200,1.226715087890625,-0.09384031321406364,-0.0028147651597857475,-0.006148704488622024
1782943344899700200,1.2367001953125,-0.09623743748366832,-0.004142835425771773,-0.006080973014654592
1782943344909685200,1.246685302734375,-0.09653612816929817,0.00029364918433129783,-0.014825009492412208
1782943344919670000,1.256669921875,-0.10341653533279895,-0.005923654427938163,-0.013099688103725202
1782943344929655000,1.266655029296875,-0.1034141972452402,-0.007694335628580302,-0.011794163029687478
1782943344939640000,1.27664013671875,-0.0947352162271738,-0.009335545230656862,-0.003983927670167759
1782943344949624000,1.2866240234375,-0.1086556050300598,-0.007959069245681166,-0.006962651220010593
1782943344959609000,1.296609130859375,-0.09982581736445427,-0.010224274231307208,-0.009265197107917629
1782943344969594400,1.306594482421875,-0.0872539205610752,-0.0024062026252038775,-0.011687647615023888
1782943344979579100,1.3165791015625,-0.08650339445471764,0.004088785417284816,-0.00274531665276736
1782943344989564200,1.326564208984375,-0.10416238526403904,0.002768898457754403,-0.007820172231644391
1782943344999549200,1.336549072265625,-0.09847674084305763,-0.0033418943064287302,-0.007532432198291644
1782943345009534200,1.3465341796875,-0.09817805015742778,-0.00046911534909158944,-0.0019890914579853416
1782943345019519000,1.35651904296875,-0.1011748938858509,-0.0013821020081639288,-0.008251654417510143
1782943345029504000,1.36650390625,-0.10581541316807269,0.004821428807079792,-0.01742542864861898
1782943345039488000,1.376488037109375,-0.09653612816929817,0.0017566709415987134,-0.009327695284341462
1782943345049473000,1.38647314453125,-0.10267010087966918,-0.0004005984238348901,0.001560947440098971
1782943345059458300,1.396458251953125,-0.09578677110671996,-0.005930705223232508,-0.00557155762121547
1782943345069443300,1.406443359375,-0.0987830303132534,-0.003227620276995003,-0.011266951684653758
1782943345079428000,1.416427978515625,-0.09668693481683731,-0.0019238624683581291,0.002870997992204502
1782943345089413000,1.4264130859375,-0.08815759140253067,-0.0070152673232369124,-0.006544599337875843
1782943345099398100,1.436398193359375,-0.09638181439042091,-0.006944613239821046,-0.006576661276840604
1782943345109383200,1.446383056640625,-0.11179098044633864,-0.0018569712446071206,-0.006498988364171236
1782943345119368200,1.4563681640625,-0.09398001394569873,-0.0029029366335831582,-0.004087876668409444
1782943345129353000,1.46635302734375,-0.10220891310870647,-0.009282700798567384,-0.01513602993665263
1782943345139337000,1.4763369140625,-0.10969137781858443,-0.0007283142745494843,-0.006078849556227214
1782943345149322000,1.486322021484375,-0.10340776750445366,-0.011006200122926383,-0.0072023828265955665
1782943345159307300,1.496307373046875,-0.09607494039833545,-0.005766801632102579,-0.0017331302358070387
1782943345169292300,1.506292236328125,-0.1016109472155571,-0.006558499999064952,-0.003598061024583876
1782943345179277000,1.516277099609375,-0.105501524913311,-0.004178162467479705,-0.005215040367702022
1782943345189262000,1.526261962890625,-0.107898064661026,0.0012894187560304998,-0.0016210892626550048
1782943345199247000,1.5362470703125,-0.10729951424598694,0.0019034590011462568,-0.002834634337457828
1782943345209232100,1.546232177734375,-0.09936813672482966,-0.0015490012739785015,-0.013975169463735074
1782943345219217200,1.556217041015625,-0.10580372273027897,-0.00013778276918455958,-0.0034236588723259046
1782943345229201200,1.566201171875,-0.10759703588783741,-0.005173658044543117,-0.00951921753475908
1782943345239186200,1.576186279296875,-0.1050526121020317,-0.006961619173549116,-0.004953654051735066
1782943345249171200,1.586171142578125,-0.0989227310448885,-0.005566018362995237,-0.006355693736230023
1782943345259156200,1.59615625,-0.1014671548306942,-0.001061948409397155,-0.0003132535005221143
1782943345269141200,1.606141357421875,-0.1053618241816759,-0.0002982705605216324,-0.002253103555878624
1782943345279126300,1.616126220703125,-0.09428747245967388,0.003540814412012696,-0.005049122915999032
1782943345289111000,1.626111083984375,-0.11059738674759864,0.001140420473087579,-0.004090100591536611
1782943345299096000,1.636095947265625,-0.09922434433996677,-0.005162734791729599,-0.0057686373961623755
1782943345309081000,1.6460810546875,-0.09443535649776458,-0.009225819512177259,-0.0024729568516369906
1782943345319066000,1.656066162109375,-0.108651513376832,-0.006976780210062861,-0.011035129389888607
1782943345329050000,1.666050048828125,-0.09937222837805747,-0.010928458711598067,-0.018773468556976876
1782943345339035100,1.67603515625,-0.10805237843990326,-0.0005368285567499697,-0.013439774812245741
1782943345349020200,1.686020263671875,-0.10356325032711028,-0.0071459079655818636,-0.004435872688749805
1782943345359005200,1.696005126953125,-0.1114922897607088,0.0010213424043729901,-0.011917871607746927
1782943345368990200,1.705990234375,-0.10670622452795504,-0.0021793715993873772,-0.018010914086108096
1782943345378975200,1.715975341796875,-0.10790332535803318,-0.004679755314067006,-0.014327088173944503
1782943345388960000,1.7259599609375,-0.10760112754106521,-0.006591671616304666,-0.006511948310444131
1782943345398945000,1.735945068359375,-0.10864683720171452,-0.0030774712165817617,-0.013505702488194219
1782943345408930000,1.745929931640625,-0.10894494336545467,-0.0037165363050997253,-0.015310231159511021
1782943345418914000,1.7559140625,-0.09981354240477085,-0.008973598316777498,-0.006741701945709064
1782943345428899000,1.765899169921875,-0.10460077668130398,0.0018508520310744642,-0.010479829028109088
1782943345438884400,1.77588427734375,-0.10205459932982922,-0.00932054859092459,-0.001973213468841277
1782943345448869000,1.785869140625,-0.10639408983886241,-0.0003186922940425575,-0.00818298679520376
1782943345458854100,1.795854248046875,-0.1066910269588232,-0.008496080465521662,-0.006948631827812642
1782943345468839200,1.805839111328125,-0.09845978970825671,-0.01633572458261624,-0.005818340023094788
1782943345478824200,1.81582421875,-0.10833470251262187,-0.009189834883343427,-0.0029485247744014485
1782943345488809200,1.825809326171875,-0.10115385109782218,-0.0024987032142467797,-0.0042955874352250244
1782943345498794000,1.8357939453125,-0.09666647655069828,-0.0024141484696418047,-0.01185698999967426
1782943345508782600,1.845782470703125,-0.11222937186360359,-0.003718618664331734,-0.001772430199733935
1782943345518767600,1.855767578125,-0.11058335822224616,-0.0044560295607894655,-0.0028931595916626973
1782943345528752600,1.865752685546875,-0.11298048249185084,-0.011631017490383236,-0.006538407059106976
1782943345538737400,1.8757373046875,-0.09651917703449725,-0.003997855730820447,-0.014103207157040014
1782943345548722700,1.88572265625,-0.09576981997191905,-0.009436265658773481,-0.010035245332075282
1782943345558707700,1.895707763671875,-0.10519698900878428,-0.011515428286697715,-0.007108156071347184
1782943345568692700,1.905692626953125,-0.09681611415445804,-0.0058553201657719905,-0.0005885952766053378
1782943345578677800,1.915677734375,-0.0942734439343214,-0.002781319547910243,-0.010510027803550474
1782943345588662500,1.92566259765625,-0.10101181227862835,0.003838482184335589,-0.009214215839351527
1782943345598647600,1.9356474609375,-0.10071487515866756,-0.009247209360077977,-0.003095111904549412
1782943345608631600,1.945631591796875,-0.10146306317746638,-0.0033873956822790202,-0.004347733180993236
1782943345618616600,1.955616455078125,-0.10460428381264208,-0.006438947006314992,-0.00619005941231735
1782943345628601600,1.9656015625,-0.09742401691973208,-0.0000887377293780446,-0.012023816200252621
1782943345638587000,1.9755869140625,-0.09637596917152404,0.004111216444801539,-0.008917082356568426
1782943345648571600,1.985571533203125,-0.10041969160437583,-0.0035362478347495197,-0.01062578140401747
1782943345658556700,1.995556640625,-0.10311375299394131,-0.0035463856362737715,-0.011641867677960544
1782943345668541700,2.005541748046875,-0.09323884018957615,-0.0015433021855540572,-0.005050725784618407
1782943345678526700,2.015526611328125,-0.10894845049679279,0.004936670950893313,-0.0086361602230696
1782943345688511500,2.025511474609375,-0.10101531940996647,-0.0004068272352218628,0.0009455280886497347
1782943345698495700,2.035495849609375,-0.0986170260965824,-0.009834781723376363,-0.009148594124079682
1782943345708480500,2.04548046875,-0.10295300947427749,-0.0020149017526768145,-0.0018672095108311622
1782943345718465500,2.055465576171875,-0.10564765538573265,0.0022634696862660346,-0.007074253801745362
1782943345728450600,2.065450439453125,-0.09547054476439952,-0.004994337688572705,-0.005175822602165862
1782943345738435800,2.075435791015625,-0.09157529089152812,-0.005156834773905575,-0.00712797501666937
1782943345748420600,2.085420654296875,-0.09590952070355414,-0.00040490927277132865,-0.00699844405259937
1782943345758405600,2.095405517578125,-0.10533668974041938,0.004555781874526292,-0.004590017504268326
1782943345768390700,2.105390625,-0.09860241304934024,-0.0025234175303950903,-0.006525995102105662
1782943345778375700,2.115375732421875,-0.09874912804365157,-0.005950524168554693,-0.009450444881175643
1782943345788360700,2.125360595703125,-0.09366261855959891,-0.002034885094780475,-0.004835525831091218
1782943345798344700,2.1353447265625,-0.10114683683514594,0.0052206389914266765,0.002354298908030614
1782943345808329500,2.14532958984375,-0.10773381401002406,0.005055986481625587,-0.004615065180556849
1782943345818314500,2.155314453125,-0.10399345843791961,-0.0025893041071482,-0.011326993042510003
1782943345828299500,2.165299560546875,-0.09636252516806125,-0.004244359571486711,-0.013265916082682088
1782943345838284800,2.175284912109375,-0.09321838192343711,-0.005175375077594071,-0.008539522315026261
1782943345848269800,2.185269775390625,-0.09590893618166446,0.000533266626484692,0.0007975070532411336
1782943345858254600,2.195254638671875,-0.09979717579185962,-0.006597060177475213,0.0037802628908073527
1782943345868239600,2.205239501953125,-0.10219196197390555,-0.006433722841925919,0.0014834297910565509
1782943345878224600,2.215224609375,-0.09590776713788508,-0.001181757130473852,-0.0015537824803730472
1782943345888208600,2.225208740234375,-0.10638415296673774,0.0012716456373222172,-0.007458732207841239
1782943345898193700,2.235193603515625,-0.10368833801150322,-0.009122012077830732,-0.00585195459832903
1782943345908178700,2.2451787109375,-0.10174246464073658,-0.004191916998196393,-0.003956162880407646
1782943345918163500,2.25516357421875,-0.09441139110028743,-0.0017240655799396335,0.0027009980204282325
1782943345928148700,2.265148681640625,-0.10234452218711376,-0.0038684571974910795,-0.0008505113155348226
1782943345938133800,2.2751337890625,-0.10024842669069767,-0.00421336164502427,-0.0035144835275132207
1782943345948118800,2.285118896484375,-0.10040157142579555,-0.0051049036572687325,-0.007686745977168902
1782943345958103600,2.295103515625,-0.10982581785321235,-0.003591521685943007,0.0034732564679812636
1782943345968088600,2.305088623046875,-0.10069441689252853,-0.007143058421369641,-0.007023583060433157
1782943345978072600,2.315072509765625,-0.09740414317548274,-0.0061945803238078944,-0.009448257490666582
1782943345988057600,2.3250576171875,-0.09994798243939876,0.003983060020487756,0.001299981249240227
1782943345998042600,2.335042724609375,-0.104582071980834,-0.0016042385925538838,-0.004894649306917563
1782943346008027600,2.345027587890625,-0.08168634956181049,-0.0016742533551529048,-0.007518604602338746
1782943346018012400,2.355012451171875,-0.08273381278812884,-0.006450564378872513,-0.008046802328061311
1782943346027997700,2.364997802734375,-0.10742167932093143,-0.008027440040465444,-0.011700817623850888
1782943346037982700,2.374982666015625,-0.1023334162712097,-0.0011781586675904691,-0.004011687893350609
1782943346047967700,2.3849677734375,-0.10188391893804073,-0.0022868688281625507,-0.011180113651417195
1782943346057952800,2.394952880859375,-0.1090653548747301,-0.008766549703665078,-0.008396529081184417
1782943346067937500,2.4049375,-0.0973930372595787,-0.0021963044678792354,-0.009738358444464393
1782943346077921500,2.414921630859375,-0.09903788185715674,-0.005957648029085248,-0.01341756298043765
1782943346087906600,2.424906494140625,-0.09919102659225464,-0.0024963468603789803,-0.011766201877105049
1782943346097891600,2.4348916015625,-0.09799392576217651,-0.0035266397561877962,-0.01427778740581125
1782943346107876600,2.444876708984375,-0.10607377184331417,-0.0067053976564668116,-0.012522650834172963
1782943346117861600,2.454861572265625,-0.09754267486333847,-0.00408246527435258,-0.005602592080296017
1782943346127846700,2.4648466796875,-0.10278057551681995,-0.005423157559894025,-0.0030042826827848326
1782943346137831700,2.474831787109375,-0.10023848981857299,0.0024541334201581776,-0.014004432090837508
1782943346147816700,2.484816650390625,-0.10577683472335338,-0.0055681372548453505,-0.005985079458705149
1782943346157801700,2.4948017578125,-0.10577683472335338,-0.012167042329534888,-0.010836254950077272
1782943346167785700,2.50478564453125,-0.10398059895634651,-0.00574784120330587,0.000708691692049615
1782943346177770500,2.5147705078125,-0.09724456869959831,-0.007613050553295761,-0.0026172058942262083
1782943346187755500,2.524755615234375,-0.09051146105229854,-0.015358513580914586,-0.0011980415449943393
1782943346197740500,2.534740478515625,-0.0999374610453844,-0.0070454615321010345,0.004336435468844138
1782943346207725600,2.5447255859375,-0.10786416239142417,0.007923997932299972,-0.008892345207533799
1782943346217710800,2.5547109375,-0.09963175609707832,0.0026198636421933767,-0.011790094209345988
1782943346227695600,2.564695556640625,-0.09080372199714183,-0.000031290187407284976,-0.01035122051264625
1782943346237680600,2.5746806640625,-0.09664075758755207,-0.004645871310774236,-0.007594464583834633
1782943346247665700,2.584665771484375,-0.10397124660611153,-0.006775850810483097,-0.0055148087655659764
1782943346257650700,2.594650634765625,-0.09903028307259082,-0.0009054974723607301,-0.0038279836232075464
1782943346267634700,2.604634765625,-0.10412088420987128,-0.010069448995776473,-0.004902576885046437
1782943346277619700,2.61461962890625,-0.11040449452400207,-0.011292707180418074,-0.01412720908713527
1782943346287604500,2.6246044921875,-0.10142565377652644,-0.004289166827592998,-0.010523800600576214
1782943346297589500,2.634589599609375,-0.09663666593432425,-0.0002737937063910067,-0.0030814532719552513
1782943346307574800,2.64457470703125,-0.10516308673918247,-0.010132285098917782,0.002623599102394655
1782943346317559800,2.654559814453125,-0.0954366424947977,-0.007162804301455617,-0.003440701338672079
1782943346327544600,2.664544677734375,-0.10500877296030521,-0.004382617264706641,0.00046532508996315297
1782943346337529600,2.674529541015625,-0.10366086548268795,-0.011750132091715932,-0.005426139534846879
1782943346347514600,2.6845146484375,-0.09722820208668709,0.0021334318321198226,-0.00616213935893029
1782943346357498600,2.69449853515625,-0.0948351694703102,-0.0030258871598169207,0.0006513263484695926
1782943346367483600,2.704483642578125,-0.10261749390959739,-0.01089451990937814,-0.0049107145257294175
1782943346377468700,2.71446875,-0.10231880322396755,-0.004706168396957218,-0.013222392034786753
1782943346387453400,2.724453369140625,-0.10830664546191691,-0.005062818081211298,-0.006334112092084251
1782943346397438500,2.7344384765625,-0.10950199272632598,-0.004827127895504236,-0.0025231572354910896
1782943346407423700,2.744423828125,-0.10112111787199973,-0.009227865338791162,-0.010818011473910882
1782943346417408800,2.75440869140625,-0.10022212320566176,-0.010011727459169924,-0.0012029917147476225
1782943346427393800,2.764393798828125,-0.09902385333180427,-0.006454619499482214,-0.0009710050232009962
1782943346437378600,2.774378662109375,-0.09319032487273216,-0.00633793431725353,-0.004177212619408965
1782943346447363600,2.784363525390625,-0.08825111490488052,-0.0069881601206026964,-0.01123334167599678
1782943346457347600,2.79434765625,-0.08944704669117927,-0.01255185866234824,-0.0024720024369889867
1782943346467332600,2.80433251953125,-0.10889876613616943,-0.006730605162959546,0.0006428827471099794
1782943346477317600,2.814317626953125,-0.10904665017426013,-0.006218216927722096,-0.003462502178526483
1782943346487302700,2.824302734375,-0.09588087913095951,-0.0062742396975867445,-0.00596838861880824
1782943346497287700,2.83428759765625,-0.10620645831227302,0.002018609813414514,-0.0005617027031024918
1782943346507268600,2.8442685546875,-0.10426116946339607,-0.0036321459572762247,-0.00034788185590878127
1782943346517253600,2.854253662109375,-0.0988742157280445,-0.00992792163323611,-0.007254049081751145
1782943346527238700,2.86423876953125,-0.09767945298552512,-0.005493775110691786,-0.016539403061708435
1782943346537224000,2.874223876953125,-0.10082301170825958,-0.0035186025802046057,-0.00566487562758848
1782943346547208700,2.884208740234375,-0.10232231035530566,-0.006699351508170366,-0.007643952581635676
1782943346557192700,2.894192626953125,-0.09109773650765418,-0.0058646907823160285,0.0010508105274522677
1782943346567177700,2.904177734375,-0.10172259089648723,0.0025324410870671272,-0.000935618615988642
1782943346577162800,2.914162841796875,-0.09917641354501247,0.007083491987548768,-0.00701931787726935
1782943346587147800,2.924147705078125,-0.11100070685148239,0.00017192250080406664,-0.002790484668477438
1782943346597132800,2.9341328125,-0.10037877507209778,-0.008869005431141703,-0.008674350508721545
1782943346607117600,2.94411767578125,-0.10082885692715644,-0.007922701024357229,-0.011831389767536893
1782943346617102600,2.9541025390625,-0.10157529138028622,-0.003795154499262571,0.0019353656764840707
1782943346627088000,2.964087890625,-0.10471826558113098,-0.003472973340190947,-0.008499446032964623
1782943346637073000,2.974072998046875,-0.10815700785815716,-0.0010203194910660385,-0.007190336195775308
1782943346647057700,2.9840576171875,-0.10247019439339637,-0.003564286619145423,-0.00278985448081512
1782943346657041700,2.994041748046875,-0.10381751734912395,-0.0038091099593788383,-0.0012903731706785037
1782943346667026700,3.004026611328125,-0.10381401021778583,-0.0006305895211175084,-0.014797989054745993
1782943346677011700,3.01401171875,-0.09797697462737559,-0.0059255541240796445,-0.007005166054330766
1782943346686996700,3.023996826171875,-0.1023164651364088,-0.003549198647867888,-0.0040700350510422135
1782943346696981800,3.033981689453125,-0.09543313536345958,-0.005777268227189779,-0.011225628726999275
1782943346706966500,3.043966552734375,-0.0954319663196802,-0.0031069165067747232,-0.0015499511220492422
1782943346716951600,3.05395166015625,-0.11308978808522224,-0.004417505914997309,-0.006497043002257123
1782943346726936800,3.063936767578125,-0.0978244144141674,-0.0010881422965787352,-0.0012141158969607203
1782943346736921900,3.073921875,-0.09109130676686764,-0.004762465161457658,0.001389426798094064
1782943346746905900,3.08390576171875,-0.09303425752818584,-0.011105861105117945,0.00018228863119147716
1782943346756891000,3.093890869140625,-0.1000678094267845,-0.00525739080524072,0.00029248470712918786
1782943346766875600,3.103875732421875,-0.10037059176564216,-0.005701006386894732,-0.011504308671061881
1782943346776860700,3.113860595703125,-0.09842413387298583,0.00009109408324584364,-0.008465968455048278
1782943346786845700,3.123845703125,-0.09767302324473857,0.004956471629906445,-0.0017455832920037209
1782943346796830700,3.133830810546875,-0.08179857776463031,-0.00941370676709339,-0.004584884671424515
1782943346806815700,3.143815673828125,-0.1462707576751709,0.0727063763031736,-0.19186850657202303
1782943346816800800,3.15380078125,-0.11421265463531016,-0.08895920837530866,-0.06454093886439223
1782943346826785800,3.163785888671875,-0.08681903627514839,-0.176025680072885,-0.23974870385024696
1782943346836770800,3.173770751953125,-0.18421382710039613,0.1977952845388092,0.6305521847818046
1782943346846754800,3.1837548828125,0.07819500031471252,-0.05892033620337024,-0.11485889838328585
1782943346856739800,3.19373974609375,0.0304775558501482,0.016813662558980286,-0.05668654013616033
1782943346866724600,3.203724609375,-0.3207330060899257,-0.034950664409901945,0.06491960858420934
1782943346876709600,3.213709716796875,-0.027873510831594464,0.015813308143708855,-0.007948214491526596
1782943346886694700,3.223694580078125,-0.1531108328282833,-0.03998743473440408,0.035495384012162685
1782943346896679700,3.2336796875,-0.05613806680738925,-0.009922916664555668,0.0036665596835315224
1782943346906664700,3.243664794921875,-0.11868366256952285,-0.0017741335330531,-0.02189213030047249
1782943346916649700,3.253649658203125,-0.07992752319574356,0.016688611407205463,-0.03999791502922308
1782943346926634800,3.263634765625,-0.10177227525711059,-0.001723353193886578,-0.003239219383243471
1782943346936618800,3.27361865234375,-0.09758534496128558,0.01139150964608416,-0.008273441557632759
1782943346946603800,3.283603759765625,-0.08576338974237442,0.0019467501536011695,-0.011939599382365123
1782943346956588800,3.2935888671875,-0.10746142680943012,-0.00044012671662494536,0.00003551883795298636
1782943346966573800,3.30357373046875,-0.08187515013217926,0.0037653986818157134,-0.007819336548005231
1782943346976558600,3.31355859375,-0.08661854526698588,-0.002559018566738814,-0.006729860810865648
1782943346986543600,3.323543701171875,0.30606267570257184,-0.1585453520324081,0.017626449379744006
1782943346996528600,3.333528564453125,0.09536416178047656,-0.06397860597362741,-0.04643159220537636
1782943347006514000,3.343513916015625,-1.2382383116304874,0.2690991918992251,0.12156692638825624
1782943347016498700,3.353498779296875,0.723446960774064,-0.053643637909460806,-0.16566965095438063
1782943347026483700,3.363483642578125,-0.2832785969644785,-0.004796860621403902,0.032416780284419654
1782943347036467700,3.3734677734375,-0.25485329746901986,-0.020281904925126583,0.0417416990897851
1782943347046452700,3.38345263671875,0.027521628654003143,-0.004599073026981204,-0.029752616276196204
1782943347056437800,3.393437744140625,-0.15757307293415068,-0.015004695174563674,0.01863022872796282
1782943347066422800,3.4034228515625,-0.08529518770873547,-0.005972315875254571,-0.009294774828851222
1782943347076407600,3.413407470703125,-0.10385551127195358,-0.005498487818427384,-0.004018998983548954
1782943347086392600,3.423392578125,-0.08709902226030826,-0.006949873936828226,-0.014194684832775965
1782943347096377600,3.433377685546875,-0.10026479330360889,0.0013606025624088942,-0.008887417870666832
1782943347106363000,3.44336279296875,-0.11537585319578647,0.00549373857807368,0.0006912884660996496
1782943347116348000,3.453347900390625,-0.09846505040526389,-0.003410648693703115,-0.0029135584922973063
1782943347126332700,3.463332763671875,-0.0849970815449953,-0.00018841697787865994,0.00020830898843705653
1782943347136316700,3.473316650390625,-0.09607318683266639,0.000052917497325688594,-0.005228128178138286
1782943347146301700,3.4833017578125,-0.10325988346636295,-0.006390650885179638,-0.001882343147881329
1782943347156286700,3.49328662109375,-0.101911391466856,-0.0034659773438237606,0.007234348867437802
1782943347166271700,3.503271728515625,-0.10385668031573295,-0.010039090390130878,-0.005625539131043479
1782943347176256800,3.5132568359375,-0.09547697450518608,0.0008742620838806033,-0.01474657396133989
1782943347186241500,3.523241455078125,-0.10310790777504443,-0.012164119720086455,-0.01232455271249637
1782943347196226800,3.533226806640625,-0.09697335054278373,-0.010756499678175897,-0.014130232161283493
1782943347206211800,3.5432119140625,-0.11238427016437053,-0.006388184933457523,-0.004044421119173057
1782943347216196900,3.55319677734375,-0.11252747802734374,-0.006200589939486235,-0.006721124948561192
1782943347226181600,3.563181640625,-0.0995060838907957,-0.0025979440713301298,-0.005151811538916081
1782943347236166000,3.573165771484375,-0.09874971256554126,-0.002187390509061515,0.005835272891586646
1782943347246150700,3.583150634765625,-0.10233107818365096,-0.0025508352602832017,-0.005011234024446458
1782943347256135700,3.5931357421875,-0.09812719675302504,-0.006026676410995423,-0.0038030546779278663
1782943347266120700,3.60312060546875,-0.10649287403821944,-0.007611717112734913,0.008992704876046627
1782943347276105700,3.613105712890625,-0.10259177494645118,-0.005346548659726977,0.005404539624392054
1782943347286090500,3.623090576171875,-0.1027303066343069,-0.005207943906635045,-0.005385560929286293
1782943347296075800,3.63307568359375,-0.1054056633234024,-0.0028361732739955185,-0.004681696109403856
1782943347306060800,3.643060791015625,-0.12154139008820056,-0.0028693631575442847,0.002502027682494372
1782943347316045800,3.6530458984375,-0.11030512580275535,-0.00857254323521629,0.0040717977498658
1782943347326030800,3.66303076171875,-0.05732698433101177,-0.010027144224010407,-0.0022135615633567794
1782943347336014800,3.673014892578125,-0.08156418448686599,-0.0076432995610870415,-0.004749655912234448
1782943347345999600,3.68299951171875,-0.10399755009114742,-0.004145465774275363,-0.003210774173471145
1782943347355984600,3.692984619140625,-0.09501520221233367,-0.0024355748501606283,0.0004927747858921066
1782943347365969700,3.7029697265625,-0.09052022888064384,-0.011702566622942685,-0.004176048142206855
1782943347375954700,3.71295458984375,-0.08767126919031143,-0.011400861996319143,0.003269546022848226
1782943347385939700,3.722939697265625,-0.09439794709682464,-0.0024618418025784193,-0.0011008921802975237
1782943347395924700,3.7329248046875,-0.10112462500333785,0.0018294439168646932,-0.0038171928011346604
1782943347405909800,3.74290966796875,-0.10082067362070082,-0.0017867738189175724,-0.006716517272102646
1782943347415894800,3.752894775390625,-0.097079149004817,0.0005953720772638916,-0.014024913189862855
1782943347425879800,3.7628798828125,-0.09558277296721934,-0.0022184249681420623,-0.0013603285677731035
1782943347435863800,3.77286376953125,-0.09723346278369425,0.0008027312176302075,-0.003480604090797715
1782943347445848600,3.7828486328125,-0.10770751052498817,-0.0015444894956424832,0.00003714910603594035
1782943347455833600,3.79283349609375,-0.11234393815398215,-0.010148797842301428,-0.0001569304276490584
1782943347465818600,3.802818603515625,-0.09976853421926497,-0.008127247153129428,0.0004649551972048357
1782943347475803600,3.8128037109375,-0.10440379280447959,-0.009580240706726908,0.0024037640729453412
1782943347485789000,3.822788818359375,-0.09946925901174544,-0.013469320567138492,0.0068728677444392814
1782943347495773700,3.832773681640625,-0.09977262587249279,-0.0028722492343746125,0.0033599185868864877
1782943347505758000,3.842758056640625,-0.0843652133822441,-0.005885642238799482,0.0008815960069652646
1782943347515743200,3.8527431640625,-0.10830489189624785,-0.006247589152678847,0.0043187582482583815
1782943347525727000,3.86272705078125,-0.11967208908498286,-0.008338186490070074,0.004864930022088811
1782943347535712300,3.872712158203125,-0.1225070202499628,-0.008019275000318885,0.0010903525199741125
1782943347545697300,3.882697265625,-0.10034545732438564,-0.0049475942037068305,-0.0012505617500981315
1782943347555682300,3.892682373046875,-0.11035188755393027,-0.008721596317086367,0.0030625887412810697
1782943347565667000,3.9026669921875,-0.10570026235580443,-0.008795958461239933,0.0027168029443360863
1782943347575652000,3.912652099609375,-0.08040332401394844,-0.016087065317481754,0.007507927944697439
1782943347585637000,3.92263720703125,-0.04722352346777916,-0.31894349232465025,0.16959161017108706
1782943347595622100,3.9326220703125,-0.4720855970740318,-0.8501243985764682,0.6880181391920894
1782943347605607000,3.94260693359375,-0.30689152774214745,0.2501262872134335,0.4005244087506085
1782943347615592200,3.95259228515625,0.834485661548376,0.7329462451990694,-0.3164310345796868
1782943347625577200,3.9625771484375,-0.2686287248432636,0.3670309391453862,-0.6874142550148069
1782943347635561200,3.972561279296875,-0.4556763140648603,-0.15805048118755222,-0.176037808902096
1782943347645546200,3.982546142578125,0.055474634462594985,-0.012466682863235472,-0.05174597846143879
1782943347655531300,3.99253125,-0.10748363864123821,-0.00674056030139327,-0.013686053748981793
1782943347665516000,4.00251611328125,-0.11151917776763438,-0.004945931969583034,-0.03575877048897091
1782943347675501000,4.0125009765625,-0.11016191793978214,-0.012627627312298863,0.003051561598834814
1782943347685486000,4.022486083984375,-0.11164601901769637,-0.019890841514617202,0.021572812385344878
1782943347695471000,4.03247119140625,-0.09727028766274452,-0.010323825615644454,-0.0011782180330948903
1782943347705456400,4.042456298828125,-0.09247720816731453,-0.003223400759603828,0.0064829436949570655
1782943347715441200,4.052441162109375,-0.08109948958456516,-0.002555602766945958,-0.00462365034581162
1782943347725426200,4.06242626953125,-0.09815350023806095,-0.011467077366635202,0.002023323662794428
1782943347735410200,4.07241015625,-0.09485913486778735,-0.01053955072555691,-0.0019270008485822471
1782943347745395200,4.082395263671875,-0.10114566779136658,-0.004972198922000825,-0.0006698438192717731
1782943347755380200,4.092380126953125,-0.08229542137086392,-0.00602327887751162,-0.0003907095007714815
1782943347765365200,4.102365234375,-0.10444938551187515,-0.010220474839024244,-0.008049640455830375
1782943347775350000,4.11235009765625,-0.10326046798825263,-0.009756674985866994,-0.00812599819424795
1782943347785335000,4.1223349609375,-0.0938379751265049,-0.013487641675118357,-0.0019188780492753721
1782943347795320000,4.132320068359375,-0.10207388855218887,-0.005749448638502508,0.010639234540634788
1782943347805305300,4.142305419921875,-0.11180325540602207,-0.0006698803518898784,0.014820189470110925
1782943347815290000,4.1522900390625,-0.11210194609165192,-0.006466364736203104,0.009379781664605251
1782943347825274000,4.162274169921875,-0.09683598789870738,-0.00893129354501143,0.0050734627728117624
1782943347835259100,4.172259033203125,-0.09952537311315536,-0.011301493275072424,0.0036235767750418743
1782943347845244200,4.182244140625,-0.10071779776811599,-0.008028298556990922,-0.003280818618822377
1782943347855229200,4.192229248046875,-0.10041793803870677,-0.0035654739292338487,-0.006529756820126203
1782943347865214200,4.202214111328125,-0.09982406379878521,0.008762549381982534,-0.00628845887753996
1782943347875199000,4.212198974609375,-0.10775602584183215,-0.00467856800397858,-0.0067896921061677855
1782943347885184000,4.22218408203125,-0.11523556794226168,-0.004636409362684935,-0.0007769734385772608
1782943347895169300,4.232169189453125,-0.09802548994421958,-0.0020568411982618273,0.0020249116900376975
1782943347905154300,4.242154296875,-0.08994447481930255,-0.00868858909662813,-0.0036372148580383506
1782943347915139000,4.25213916015625,-0.10236614949703216,-0.005470065441541373,-0.001203948412684258
1782943347925123300,4.262123291015625,-0.11852584165930748,-0.0030027802788652478,-0.003039093701262027
1782943347935108000,4.272108154296875,-0.09248831408321857,-0.0060392618979327375,0.0026695297365076837
1782943347945093000,4.282093017578125,-0.09742869309484958,-0.003728792998474091,0.0010747302591567857
1782943347955078100,4.292078125,-0.09892974530756472,0.0004963138832710683,-0.012956242778734302
1782943347965063200,4.302063232421875,-0.09818214181065558,-0.007723251195810734,-0.00018467923438875004
1782943347975048200,4.312048095703125,-0.09803425777256489,-0.012729187990631908,0.0026199869397794825
1782943347985033000,4.322032958984375,-0.10057985060214995,-0.011311430147197097,0.007612893006380181
1782943347995018200,4.332018310546875,-0.11210136156976222,-0.004460596138052642,-0.0006347473897156305
1782943348005003300,4.342003173828125,-0.09668868838250637,-0.005185750341136009,-0.004659991167671978
1782943348014988300,4.35198828125,-0.09534311899244785,-0.009774758631829172,0.0039092275992967185
1782943348024973000,4.36197314453125,-0.10268003775179385,-0.002996003478206694,0.0014408578745205886
1782943348034957000,4.37195703125,-0.09684534024894237,-0.011171491953544319,-0.009102574441710021
1782943348044942000,4.381942138671875,-0.09594985271394252,-0.008674359641876071,-0.005449607175402343
1782943348054927000,4.391927001953125,-0.10238368515372276,-0.012587331834528594,0.005380565093760378
1782943348064912100,4.401912109375,-0.10328443338572979,-0.010659395979251711,0.008818250208150129
1782943348074897200,4.411897216796875,-0.09849778363108634,-0.005177092110645026,-0.005526396455371286
1782943348084882200,4.421882080078125,-0.10912322254180908,-0.004806870558764785,0.003142417078418657
1782943348094867200,4.4318671875,-0.10134265166819095,-0.00642164881164208,-0.0010159766760887577
1782943348104855000,4.44185498046875,-0.10238953037261962,0.0007327529876492917,-0.005342077980586327
1782943348114840000,4.451840087890625,-0.10508242271840572,-0.004383987237885594,-0.003902991938043851
1782943348124825300,4.461825439453125,-0.10598200190663337,-0.009077734544686973,0.002774565580138005
1782943348134810000,4.47181005859375,-0.11092238091826438,-0.0038928244537673887,0.004733522194763645
1782943348144795100,4.481795166015625,-0.10418927327096461,-0.010148980505391954,0.0022966070541762746
1782943348154780200,4.4917802734375,-0.09745733466744422,-0.007081738421879708,0.00047908875383436675
1782943348164764200,4.50176416015625,-0.10868015494942665,-0.0057450647243298585,0.0006219381404924206
1782943348174749200,4.511749267578125,-0.10104980620145797,-0.0082576868660748,0.003816290902125183
1782943348184734200,4.521734130859375,-0.09775836344063281,-0.008210815517045557,0.005059203635307494
1782943348194719000,4.531718994140625,-0.10449380917549132,-0.0051609629597514865,-0.000427331167133525
1782943348204704000,4.5417041015625,-0.09851005859076976,-0.009568732932023703,-0.0016485480917384848
1782943348214689300,4.551689208984375,-0.11122925491034984,-0.004179331511259079,-0.0008853748496505431
1782943348224674300,4.56167431640625,-0.10554419501125811,-0.009201233060192316,-0.009879712277068756
1782943348234659000,4.5716591796875,-0.10045359387397766,-0.0075397478550672525,-0.009197392568713984
1782943348244644000,4.58164404296875,-0.1097317098289728,-0.007367186033446342,0.0028524691049591636
1782943348254629000,4.591629150390625,-0.09686229138374328,-0.004414565039239824,0.007651110691495705
1782943348264613000,4.601613037109375,-0.09865735810697078,-0.003401387675013393,-0.006554259932076092
1782943348274598100,4.61159814453125,-0.10269815793037414,-0.006818356511648744,-0.0035587998765637167
1782943348284583200,4.621583251953125,-0.1112269168227911,-0.011632917186524719,-0.008274213309190235
1782943348294568000,4.63156787109375,-0.1049351232022047,0.004223755174875259,-0.012440785803575998
1782943348304553000,4.641552978515625,-0.10732874034047127,-0.008237849654443562,0.005409907635964918
1782943348314538200,4.651538330078125,-0.10358546215891837,-0.010589600412361323,0.004282953999226447
1782943348324523300,4.661523193359375,-0.10059621721506118,-0.0028123174743726847,-0.0022182856875355354
1782943348334508300,4.67150830078125,-0.1004471641331911,-0.004867368574347347,-0.002879169882216956
1782943348344493000,4.6814931640625,-0.10239245298206806,-0.010692092672456055,-0.0006174857276608236
1782943348354478000,4.69147802734375,-0.10613397759795189,-0.010364522952213883,0.00026713792002992705
1782943348364462000,4.701462158203125,-0.10374036045968532,-0.00031167803136631847,-0.004478609002067242
1782943348374447000,4.711447021484375,-0.10059504817128181,-0.004613594742678105,-0.0021488234807853584
1782943348384432000,4.72143212890625,-0.10897300041615962,-0.004835238136723637,0.004877675339230336
1782943348394417200,4.731417236328125,-0.10852291856110095,-0.01025021239016205,-0.0035051699931849725
1782943348404402200,4.741402099609375,-0.10418459709584713,-0.011385335633624344,0.0009111919942079111
1782943348414387200,4.75138720703125,-0.10044073439240456,0.000007872779201716185,-0.006171030484861694
1782943348424372200,4.761372314453125,-0.10044131891429424,-0.005651048031635582,-0.005110104988771491
1782943348434357200,4.771357177734375,-0.09819558581411839,-0.00628028584588319,-0.003248204124008771
1782943348444342000,4.781342041015625,-0.10253507632315158,-0.0028360271435230967,-0.005149809094786178
1782943348454327000,4.7913271484375,-0.0965519102603197,-0.004214494156185538,-0.0056725337776588275
1782943348464312000,4.80131201171875,-0.0986480057567358,0.001221559417899698,-0.0002470358469174243
1782943348474296000,4.811296142578125,-0.09371054935455321,-0.009958609032444655,0.006741931416216539
1782943348484281000,4.821281005859375,-0.10523381388783454,-0.010224182899761944,0.004287224890611833
1782943348494266000,4.83126611328125,-0.10029401939809322,-0.0031052908052690326,-0.011380370622494956
1782943348504252700,4.841252685546875,-0.10164192687571048,-0.0074009056399576365,-0.002975614852370927
1782943348514238000,4.851238037109375,-0.10987316412627697,0.0005719364027492701,-0.0053814213269972235
1782943348524223000,4.861222900390625,-0.09386837026476859,-0.003031367052532732,0.004648216248198877
1782943348534207700,4.871207763671875,-0.10179857874214648,-0.0065100029485300175,0.006220499074709369
1782943348544192800,4.88119287109375,-0.09311901320219039,-0.009208722246903925,0.003533277276239823
1782943348554177800,4.891177734375,-0.08863046961128711,-0.014283760488871484,-0.00044149098158231934
1782943348564162800,4.901162841796875,-0.0928185689508915,-0.009104823481012134,-0.00373821498901234
1782943348574146800,4.911146728515625,-0.10104454550445079,-0.011690949250385165,0.001054074488551123
1782943348584131800,4.9211318359375,-0.10074410125315189,-0.017867007536813615,0.009280756578297586
1782943348594116600,4.93111669921875,-0.10343407098948955,-0.004838398208189755,0.0000057253462437074624
1782943348604101600,4.9411015625,-0.10777122341096401,-0.005844086385704577,-0.003509419193328358
1782943348614087000,4.9510869140625,-0.0904126768529415,-0.004532309667393565,-0.002689041579508921
1782943348624072000,4.961072021484375,-0.09669687168896197,-0.0031903935391455886,0.003622010439040605
1782943348634056700,4.971056640625,-0.09445406119823455,0.004196264379750937,-0.0044985980523924805
1782943348644041700,4.981041748046875,-0.09819383224844933,-0.007805120792984962,0.0002718883020279463
1782943348654026800,4.99102685546875,-0.0957984615445137,-0.002459576780255884,-0.00478865562370629
1782943348664011800,5.00101171875,-0.09325286871492862,-0.0010351152013987302,-0.0032727700263960285
1782943348673995800,5.010995849609375,-0.0965437269538641,-0.0021360256480053067,-0.0002838276182825211
1782943348683980800,5.020980712890625,-0.09788695825636386,-0.0055657809009775515,0.0025268481715640515
1782943348693965600,5.030965576171875,-0.09234627526402472,-0.014436832158733159,0.00370556624486926
1782943348703950800,5.040950927734375,-0.09339490753412247,-0.01061813238710165,0.0002619959540315904
1782943348713936000,5.050935791015625,-0.10177519786655902,-0.008642210937943309,-0.00033024345122976224
1782943348723921000,5.0609208984375,-0.10371697958409785,-0.0042920711707323785,-0.0004883977215853519
1782943348733906000,5.070906005859375,-0.09817863467931746,-0.0027319091819226742,-0.004851200607547071
1782943348743890700,5.080890625,-0.09533727377355099,-0.009984346261899918,0.0031810115061583926
1782943348753875700,5.090875732421875,-0.10252046327590941,-0.00742280694451183,-0.00035342910563922485
1782943348763860700,5.10086083984375,-0.10760521919429301,-0.007122545356303453,-0.0035351404397631994
1782943348773844700,5.1108447265625,-0.10970014564692973,-0.0051601957747712725,-0.003752039160032291
1782943348783829800,5.120829833984375,-0.10236848758459091,-0.0097766400616616,-0.004666262219898635
1782943348793814800,5.130814697265625,-0.08485738081336021,-0.006920026787836105,-8.756411902140825e-7
1782943348803799800,5.1407998046875,-0.09682780459225178,0.0006763100926764309,-0.001742676665575709
1782943348813784800,5.150784912109375,-0.10416121622025966,-0.007205949323438108,-0.002987257341103395
1782943348823769900,5.160769775390625,-0.09652852938473223,-0.014433818217739461,0.01037351910942234
1782943348833755000,5.1707548828125,-0.10266191757321357,-0.014657562237326055,-0.005286050644144415
1782943348843739600,5.18073974609375,-0.11133622241616248,-0.01424991301819682,0.011415435086010256
1782943348853724700,5.190724609375,-0.11163257501423358,-0.002997355185076594,0.011575552984589012
1782943348863709700,5.200709716796875,-0.10070727637410164,-0.0068273618020117275,-0.00774317631405429
1782943348873693700,5.210693603515625,-0.09487550148069858,-0.005304335219506174,-0.00034621733849635346
1782943348883678700,5.2206787109375,-0.10639993505775928,-0.011178634080383927,0.006307983278628671
1782943348893664000,5.2306640625,-0.10849544603228568,-0.0108314646105282,0.0007965903128555509
1782943348903648800,5.240648681640625,-0.101911391466856,-0.009491356846876442,0.0010119740711175835
1782943348913633800,5.2506337890625,-0.10909458096921443,-0.003625551819708198,-0.005299809741438366
1782943348923618800,5.260618896484375,-0.10445756881833076,-0.008650302912853658,-0.009620398045534965
1782943348933603800,5.270603759765625,-0.09892156200110912,-0.0059223757863044735,-0.007683129247976467
1782943348943588600,5.280588623046875,-0.09443243388831615,-0.009809300222247838,0.011309245039976667
1782943348953573600,5.29057373046875,-0.09981763405799865,-0.01017398708248511,0.0025746237028914038
1782943348963558700,5.30055859375,-0.09936872124671936,-0.00927902927044779,0.006231223681411938
1782943348973544000,5.3105439453125,-0.09084288496375083,-0.007021770129259675,0.0135010822536482
1782943348983527700,5.320527587890625,-0.09653086747229099,-0.008596325969602912,-0.006421192153915762
1782943348993513000,5.330512939453125,-0.10850187577307224,-0.013684936079196632,-0.0003825376107590273
1782943349003497700,5.340497802734375,-0.10371230340898037,-0.005038688286952674,0.0036656931754958347
1782943349013482800,5.350482666015625,-0.09937164385616779,-0.005855137502681464,0.00584409894379205
1782943349023467800,5.3604677734375,-0.09937164385616779,-0.005555789229925722,0.0009234669538913294
1782943349033452800,5.370452880859375,-0.09996727166175842,-0.005942176465317607,0.0028101711830589918
1782943349043437800,5.380437744140625,-0.09054244071245193,-0.006752068076096475,-0.005283591542288195
1782943349053422600,5.390422607421875,-0.09323241044878959,-0.00602105038780719,0.002263595267140772
1782943349063407600,5.40040771484375,-0.10235738166868687,-0.00343863267917186,0.0035559834400366525
1782943349073393000,5.410392822265625,-0.1038496660530567,-0.01305094902459532,-0.004312121869850671
1782943349083377000,5.420376953125,-0.10100713610351085,-0.006435202412959188,-0.001918607479572529
1782943349093362000,5.43036181640625,-0.09367255543172359,-0.010141947976406662,-0.0016219169547839554
1782943349103347000,5.440346923828125,-0.09307108240723609,-0.018933211996220053,-0.007374853316671214
1782943349113331700,5.450331787109375,-0.09770809455811977,-0.0109465606238693,-0.00114793363432982
1782943349123316700,5.460316650390625,-0.09516308625042438,-0.002012107007391751,0.005360408221720718
1782943349133301800,5.4703017578125,-0.09965221436321735,-0.005746763491071761,0.0029026089816645254
1782943349143286800,5.480286865234375,-0.10339140089154243,-0.005672291749063879,0.001409581386845093
1782943349153271600,5.490271484375,-0.10623159275352954,-0.0011403839404694736,0.007187712697137612
1782943349163256800,5.5002568359375,-0.10593056398034095,-0.005256806283351034,-0.004390784588141832
1782943349173241900,5.510241943359375,-0.09186462922692298,-0.007050283837690949,0.0033867963190132282
1782943349183225900,5.520225830078125,-0.09620704234540461,-0.005277027087472379,0.0029461729871109125
1782943349193211000,5.5302109375,-0.10189151772260666,-0.005794767351262271,0.0014735899586987215
1782943349203196000,5.54019580078125,-0.10922376030683517,-0.009088055009301751,0.010207537725637665
1782943349213180700,5.5501806640625,-0.11176818409264087,-0.011303776563704014,0.005986758817493682
1782943349223165700,5.560165771484375,-0.09739946700036525,-0.011896390428300947,0.0027352496331906877
1782943349233150700,5.570150634765625,-0.08887187715172767,-0.007625526442378759,0.01053603560270858
1782943349243135700,5.5801357421875,-0.10293372025191783,-0.013336433168780058,0.011640760282974224
1782943349253120800,5.590120849609375,-0.10682488247156142,-0.014220960918348282,0.010044056542904582
1782943349263105800,5.600105712890625,-0.0951537339001894,-0.0023762641446664927,0.003430492755200248
1782943349273090800,5.6100908203125,-0.09979600674808024,-0.006256704040896147,0.004114502097142395
1782943349283074800,5.62007470703125,-0.1029395654708147,-0.013101491901744157,0.00017442612678860312
1782943349293059800,5.630059814453125,-0.10653145248293876,-0.008734455798659474,-0.004314062665187521
1782943349303044900,5.640044921875,-0.09306699075400829,-0.0012708967186510563,-0.0053604299129627175
1782943349313030000,5.65002978515625,-0.08872983833253383,-0.0038754531938582654,-0.00010170452551683411
1782943349323014700,5.6600146484375,-0.09007833033204078,-0.011153590970672667,0.004420850932842586
1782943349332999700,5.669999755859375,-0.09786240833699703,-0.010578476230148225,0.004187948642554693
1782943349342984700,5.679984619140625,-0.10608955393433571,-0.005166132325213403,-0.001814362795453053
1782943349352970000,5.689969970703125,-0.09516250172853469,-0.00021987156206741928,0.0008457438088720664
1782943349362954800,5.699954833984375,-0.0984556980550289,-0.00662829556595534,0.007178601233853259
1782943349372939800,5.709939697265625,-0.09351765713095664,-0.015137290311977266,0.007578271500859409
1782943349382924800,5.7199248046875,-0.09875789587199688,-0.007987144562695175,0.007904584270709893
1782943349392908800,5.72990869140625,-0.09980769718587398,-0.007892652945965528,-0.0015014734794676768
1782943349402893800,5.739893798828125,-0.0881342105269432,-0.012890260303858666,-0.011416992288857
1782943349412878800,5.74987890625,-0.0948702407836914,-0.008301270279474556,-0.0012011137098481412
1782943349422863600,5.759863525390625,-0.09547054476439952,-0.010620105148479341,0.0006785602736228611
1782943349432848600,5.7698486328125,-0.10055822329223156,-0.008831121106166392,0.0070568277429090805
1782943349442833700,5.779833740234375,-0.09052841218709945,-0.009750409641861916,0.005249826270004268
1782943349452819000,5.78981884765625,-0.10444470933675766,-0.007364884478505701,0.007834055768168764
1782943349462804000,5.799803955078125,-0.10085282232463359,-0.004702222874201834,0.0005788011100201401
1782943349472788700,5.809788818359375,-0.09981003527343273,-0.011096727950591594,0.002400085694959853
1782943349482773800,5.819773681640625,-0.09217851748168468,-0.015285557942558078,0.005534756716695847
1782943349492757800,5.8297578125,-0.11208090330362319,-0.008964593026414513,0.0032127572096476795
1782943349502742800,5.83974267578125,-0.10295476303994655,-0.007100114328786731,0.004559690864663571
1782943349512726800,5.849726806640625,-0.09816694424152374,-0.012149196145590393,-0.0005073364591400604
1782943349522712000,5.859712158203125,-0.10744213758707045,-0.013892295219562947,0.006738030417589471
1782943349532697000,5.869697021484375,-0.09951192910969257,-0.014617741683591156,0.004987434165395098
1782943349542681900,5.879681884765625,-0.10654431196451186,-0.004314593529794365,0.005156834773905575
1782943349552667000,5.8896669921875,-0.10175941577553749,-0.004901910164766013,-0.0016698077921872027
1782943349562652000,5.89965185546875,-0.09801964472532272,-0.014256178362201898,-0.00619244544893736
1782943349572637000,5.909636962890625,-0.09637246204018592,-0.0009954955770634115,0.0041612809729820585
1782943349582621700,5.91962158203125,-0.09816752876341342,0.000473608861118555,0.009622781798866343
1782943349592606000,5.92960595703125,-0.09472995553016662,-0.006832056243438273,0.0017807299539097585
1782943349602590700,5.9395908203125,-0.08964052343666552,-0.010044679880701004,0.008012322386435698
1782943349612576000,5.949575927734375,-0.09936930576860904,-0.014451207743957637,0.002119206943945028
1782943349622561000,5.95956103515625,-0.10176467647254467,-0.008717632528021931,0.003862580012553371
1782943349632546000,5.969546142578125,-0.10790098727047442,-0.0005827865903265774,0.0035819558482209682
1782943349642530800,5.97953076171875,-0.10266542470455169,-0.0037987894947640595,-0.00815956139548798
1782943349652515800,5.989515869140625,-0.09144260442256927,-0.004528674671892077,-0.004417489931976888
1782943349662500900,5.9995009765625,-0.09787702138423919,-0.0027237076091580093,0.006545222675672266
1782943349672486000,6.00948583984375,-0.08904664919674396,-0.005054031986556947,0.0068322605977708005
1782943349682471000,6.019470947265625,-0.09772621473670005,-0.01055838329019025,0.006096449144999496
1782943349692456000,6.0294560546875,-0.09144201990067959,-0.015321506038773804,0.005999242698086891
1782943349702439700,6.039439697265625,-0.08770049528479576,-0.004579381945822388,0.005778990968462312
1782943349712425000,6.049425048828125,-0.10356032771766185,-0.012119714322779328,-0.0018732670755707659
1782943349722410000,6.059409912109375,-0.09488251574337482,-0.00788658853136003,-0.005481449918658472
1782943349732395000,6.06939501953125,-0.09563070376217364,-0.001592858682014048,0.011958164802228565
1782943349742379800,6.0793798828125,-0.092334584826231,-0.010447506794240325,0.015620485560415544
1782943349752364800,6.08936474609375,-0.10744798280596732,-0.004158416587393731,0.003728742766124196
1782943349762349800,6.099349853515625,-0.10191314503252506,0.005185878205299377,-0.0006613488439179491
1782943349772334800,6.1093349609375,-0.09547638998329638,0.005824230907764285,0.004199079674633685
1782943349782319900,6.11931982421875,-0.10146014056801796,-0.007552077613677829,-0.006542612876766361
1782943349792305000,6.129304931640625,-0.09428104271888732,-0.009205068985093384,-0.004591223080665804
1782943349802289000,6.139288818359375,-0.10370762723386287,-0.004134140662662685,0.00390291088129743
1782943349812274000,6.14927392578125,-0.11058978796303272,-0.005515731214173138,0.0066306370784470344
1782943349822259000,6.159259033203125,-0.10310849229693413,-0.013128946164250373,0.0014201244721014517
1782943349832244000,6.169243896484375,-0.09532616785764694,-0.006733089380990713,0.008495162583491764
1782943349842229000,6.17922900390625,-0.08814239383339881,-0.010511256212834268,-0.0008933538017736281
1782943349852213800,6.1892138671875,-0.09457505722939967,-0.010152542435657233,0.0022585457743320146
1782943349862198800,6.19919873046875,-0.09637187751829623,-0.011876534950360656,0.0027596853881259446
1782943349872183800,6.209183837890625,-0.10505144305825233,-0.011571706784889101,-0.003647698577790288
1782943349882169000,6.219169189453125,-0.09876491013467312,-0.008931439675483852,0.005013801582512678
1782943349892153900,6.22915380859375,-0.10085925206542014,-0.014044965030625462,0.017924558968417114
1782943349902139000,6.239138916015625,-0.11043488966226576,0.0016313275288790464,0.001971151659206953
1782943349912123000,6.249122802734375,-0.0968178677201271,-0.007805266923457383,0.0016523931497940793
1782943349922108000,6.25910791015625,-0.09367489351928233,-0.00946346419295296,0.006957271791994572
1782943349932093000,6.269093017578125,-0.09771043264567851,-0.004121701306197792,0.005164282861421816
1782943349942078000,6.279077880859375,-0.08753566011190414,-0.010076518057379871,-0.000866899619688047
1782943349952062700,6.289062744140625,-0.09935293915569782,-0.010094766100123524,0.004514974940102547
1782943349962047700,6.2990478515625,-0.09620821138918399,-0.010334310477040707,-0.0014611711518315131
1782943349972032800,6.30903271484375,-0.08618015384972096,-0.011751666461676358,-0.0014065959869592915
1782943349982018000,6.31901806640625,-0.09784896433353424,-0.00586125671621412,0.0072545719548477786
1782943349992003000,6.329003173828125,-0.10518003787398338,-0.006486329811997711,0.0009193410513340495
1782943350001987800,6.33898779296875,-0.0984434230953455,-0.013766422083880752,0.0017896998532989526
1782943350011971800,6.348971923828125,-0.10157821398973464,0.0009057897333055734,-0.0001745128917566035
1782943350021956900,6.358956787109375,-0.09543371988534927,-0.006786025144625455,0.00064187010860187
1782943350031942000,6.36894189453125,-0.09991524921357631,-0.0030255035673268137,0.0015287907446559982
1782943350041927000,6.378927001953125,-0.09542144492566584,-0.003518383384495973,-0.0007345305278489831
1782943350051912000,6.388911865234375,-0.11008242296278475,-0.006028630906064063,-0.0012850222837703768
1782943350061896700,6.398896728515625,-0.09795651636123656,-0.007736914394982159,0.003515564664680278
1782943350071882000,6.408882080078125,-0.10737784017920493,-0.01034587305067107,0.0022680956290336324
1782943350081867000,6.418866943359375,-0.10377835438251495,-0.010218118485156446,-0.007396424115195986
1782943350091852000,6.42885205078125,-0.08761047891378403,-0.003337565191183239,-0.0006853210912609938
1782943350101836800,6.4388369140625,-0.09972469507753848,-0.0007510192967019975,0.020705448116420302
1782943350111821800,6.44882177734375,-0.10106734185814857,-0.0007548552216030657,0.020267716569569893
1782943350121805800,6.458805908203125,-0.09538169743716716,-0.01061665281606838,0.012828546437079785
1782943350131790800,6.468790771484375,-0.10690145483911037,-0.006836969880573451,0.0011603798406606073
1782943350141776000,6.47877587890625,-0.10674947914779186,-0.011111779389251022,0.005740395399078261
1782943350151761000,6.488760986328125,-0.112280809789896,-0.008784048827737569,0.0027146475198678672
1782943350161745700,6.49874560546875,-0.07875672585070133,-0.009450750841852276,-0.012697734548087465
1782943350171731000,6.50873095703125,-0.06349895096421242,-0.008814188237674533,-0.011198822918464428
1782943350181716000,6.518716064453125,-0.10121054972112178,-0.001991119018290192,0.000057844834192655975
1782943350191701000,6.528700927734375,-0.12260814253687857,-0.011316727376822381,0.013452264401060529
1782943350201686000,6.53868603515625,-0.0968704746901989,-0.002966192861832678,0.006299567076732637
1782943350211670800,6.5486708984375,-0.11601941179633139,-0.01081836766693741,0.012169637287064687
1782943350221655800,6.55865576171875,-0.10150222614407539,-0.010626589688193052,-0.0003039993316982873
1782943350231639800,6.568639892578125,-0.11242167956531048,-0.00573326468868181,0.009414294713916024
1782943350241624800,6.578624755859375,-0.08429097910225392,-0.015470760050043462,-0.004668645973230013
1782943350251609900,6.58860986328125,-0.018463292929530143,0.004501859730202704,-0.03151135587729514
1782943350261595000,6.598594970703125,0.03340834860503673,0.00917675620606169,-0.07658165596709586
1782943350271580000,6.608579833984375,-0.23239012124836445,-0.06741285473862663,0.0792618806275539
1782943350281565000,6.61856494140625,-0.28983342543542384,-0.022360647427942602,0.08033360151229425
1782943350291550000,6.628550048828125,0.019614801052212714,0.01138571922611445,-0.03260703987622401
1782943350301535000,6.638534912109375,-0.18523031066656112,-0.01950933138374239,0.040184505376196465
1782943350311519700,6.648519775390625,-0.025417934373021124,-0.005458009677566588,-0.03837029556108173
1782943350321504800,6.6585048828125,-0.1431815594881773,-0.01817514190422371,0.02224070170954801
1782943350331488800,6.66848876953125,-0.05684241568446159,-0.003772266814019531,-0.002685115464706905
1782943350341473800,6.678473876953125,-0.11130874988734721,-0.009218019798211753,0.007533955151808914
1782943350351458800,6.688458740234375,-0.08153437387049198,-0.0048769401202909644,-0.0020134381646639667
1782943350361444000,6.698444091796875,-0.10637246252894401,-0.004199113923963159,0.004351804284623358
1782943350371428900,6.708428955078125,-0.09754501295089721,-0.0029790158107876777,0.0028573119601467624
1782943350381414000,6.718413818359375,-0.10711831246018409,-0.015246504573803395,0.005111954452563077
1782943350391399000,6.72839892578125,-0.09470189847946166,-0.010294946581032126,-0.0032757246018853036
1782943350401384000,6.738384033203125,-0.10009119030237197,-0.0030074016550555825,0.0014667937500867992
1782943350411369000,6.748368896484375,-0.10308861855268478,0.004088182629086077,0.0012663529742741957
1782943350421353700,6.758353759765625,-0.1032405942440033,-0.0033032062638550996,0.001789509198698215
1782943350431338800,6.7683388671875,-0.10399170487225055,-0.004510444895457476,0.005448241768800653
1782943350441322800,6.77832275390625,-0.10084931519329547,-0.013635416115354746,0.0054069644769188015
1782943350451307800,6.788307861328125,-0.0953144774198532,-0.006243844559323042,0.0012309939665254206
1782943350461293000,6.79829296875,-0.09082651835083962,-0.002476948040165007,0.0035450247962493446
1782943350471278000,6.808278076171875,-0.1026473045259714,-0.009065368253458292,-0.0015547368950210511
1782943350481262800,6.818262939453125,-0.10743863045573233,-0.0015779716401360928,0.009113655241439119
1782943350491247900,6.828247802734375,-0.09756196408569812,0.0022825579792261123,0.007126557094429153
1782943350501233000,6.83823291015625,-0.1038461589217186,-0.006865501855313778,0.002515613249852322
1782943350511218000,6.848218017578125,-0.09382043946981429,-0.005549067228194326,0.008696683354827109
1782943350521202700,6.85820263671875,-0.10459434694051742,-0.0004772255903109908,0.010511247079679742
1782943350531187700,6.868187744140625,-0.09800912333130836,-0.012943360464274882,-0.004201694040116854
1782943350541173000,6.878173095703125,-0.10100421349406241,-0.0028251769559457895,0.005385702493181451
1782943350551157000,6.888156982421875,-0.09128127638101577,-0.0010541486954316495,-0.0012652158965356648
1782943350561142000,6.89814208984375,-0.1045996076375246,-0.005501209498476237,-0.004247136050462723
1782943350571127000,6.908126953125,-0.10355097536742687,-0.0003159340813755989,0.0029435517717618493
1782943350581111800,6.91811181640625,-0.09816285258829593,-0.008746529828943311,-0.004300864115252625
1782943350591096800,6.928096923828125,-0.09516951599121093,-0.0017317374297417699,0.00643519099651603
1782943350601081900,6.938081787109375,-0.09846095875203609,-0.014343856645654886,0.004531983157119248
1782943350611067000,6.94806689453125,-0.11297229918539524,-0.00820624893978238,-0.000006021032121498137
1782943350621052000,6.958052001953125,-0.10564122564494609,-0.003670651336759329,0.0009520856935996562
1782943350631037000,6.968036865234375,-0.09621171852052211,-0.0024138014097698033,0.006875128200184553
1782943350641022000,6.97802197265625,-0.10369418323040008,-0.00880532907778397,0.00956846807054244
1782943350651006000,6.988005859375,-0.08603636146485805,-0.01076442725630477,0.004839122010685969
1782943350660991000,6.997990966796875,-0.0981599299788475,-0.005704184724669903,0.0031438190176384523
1782943350670976000,7.00797607421875,-0.10369535227417945,0.002037716372683644,0.0038048173767514524
1782943350680960800,7.017960693359375,-0.1065425583988428,0.00024979177629575134,0.0010663026408175937
1782943350690945800,7.02794580078125,-0.09651800799071789,0.0028323373490944503,0.006939927931549027
1782943350700930800,7.037930908203125,-0.09397475324869155,-0.005516443600226194,0.002526906395424157
1782943350710915800,7.047915771484375,-0.08858663046956061,-0.012605853871908037,-0.003780333672754932
1782943350720900900,7.05790087890625,-0.0842518161356449,-0.005089815685991197,-0.0021735081141814588
1782943350730886000,7.067885986328125,0.3811725694835186,0.002955781065672636,-0.08268667657761834
1782943350740871000,7.077870849609375,-0.5924293018102645,0.004037548420391977,0.055167605206882575
1782943350750856000,7.08785595703125,-0.17490648505091666,-0.05809214175092056,0.04439406762893777
1782943350760840000,7.09783984375,0.16965747848153112,0.029987799571827053,-0.09135182086657732
1782943350770825000,7.107824951171875,-0.3364174819558859,-0.030917627767845988,0.06491051196230109
1782943350780810000,7.11781005859375,-0.06242986042797565,-0.003239803905133158,-0.019813337565306573
1782943350790794800,7.127794677734375,-0.11927578324377536,-0.011067045198380946,0.016497577780555002
1782943350800779800,7.13777978515625,-0.12688392015993594,-0.008916771829314529,0.011007757325773127
1782943350810764800,7.147764892578125,-0.15183306797742843,-0.02907802778314799,0.013505312045838217
1782943350820750000,7.15775,-0.06411152990460395,-0.0028506949896924196,-0.004651074925565627
1782943350830734800,7.16773486328125,0.011004793617129326,0.00533219134081155,-0.01910027794210473
1782943350840720000,7.177719970703125,-0.146714409789443,-0.004171750993002206,0.010800847993267233
