time,seconds_elapsed,z,y,x
1782943321724534000,0.088533935546875,-0.09710720605552196,0.0011902326978743077,-0.009960732490872032
1782943321734519000,0.09851904296875,-0.09935469272136688,0.0013396876385435462,0.004317276393936481
1782943321744504000,0.108504150390625,-0.10309797090291976,-0.0039119492793455715,-0.003322627916955389
1782943321754488000,0.118488037109375,-0.10579261681437492,-0.0034311434924602507,0.000727700069907587
1782943321764473000,0.12847314453125,-0.09935995341837406,0.0032344336102716623,-0.0016797652139095589
1782943321774457900,0.138457763671875,-0.09232640151977539,-0.003826572550833225,-0.008120803712611086
1782943321784443000,0.14844287109375,-0.09486965626180172,-0.003104742815997451,-0.006333454504958353
1782943321794428200,0.15842822265625,-0.09531973811686038,0.0020393055415712296,-0.00063772251480259
1782943321804413200,0.1684130859375,-0.09562135141193866,0.0009514737722463905,-0.004185450724791736
1782943321814398000,0.17839794921875,-0.09831891993284225,-0.00098738533584401,0.005293715644080657
1782943321824383000,0.188383056640625,-0.109091658359766,0.0014783289242535828,-0.0025726109839626587
1782943321834367000,0.198366943359375,-0.08529811031818389,-0.005774619612377137,-0.005292832011380233
1782943321844352000,0.20835205078125,-0.10370119749307632,-0.005715217575337737,-0.0064488130964920854
1782943321854337000,0.2183369140625,-0.1022030678898096,-0.011182999728247522,0.003947379069041926
1782943321864322000,0.228322021484375,-0.09516893146932125,-0.0016566628995351492,-0.0006639369515818543
1782943321874306800,0.238306884765625,-0.09128069185912609,0.010715583145897834,0.004474430583871435
1782943321884292000,0.2482919921875,-0.09651566990315913,0.00793749673468992,-0.0030668973069288767
1782943321894277000,0.258277099609375,-0.10788637422323226,0.005645184546429664,-0.0012283887341967784
1782943321904262100,0.26826220703125,-0.10758768353760242,-0.0006326718803495168,-0.0035806486654793843
1782943321914247000,0.278246826171875,-0.10474281550049781,-0.003970858126040548,-0.0029051902394625355
1782943321924231200,0.288231201171875,-0.10474515358805656,0.0008961451221257447,-0.0038422907097730784
1782943321934216000,0.2982158203125,-0.09337269570231436,0.004052307598106563,-0.009791241692460607
1782943321944201000,0.308200927734375,-0.10085223780274391,-0.0018722418789751828,-0.002265730142011307
1782943321954186000,0.31818603515625,-0.099954996702075,0.0020270853808149695,0.0017137473986134862
1782943321964171000,0.3281708984375,-0.10204700054526328,0.0011561660314910113,-0.002860451482015196
1782943321974155800,0.33815576171875,-0.0999503205269575,-0.0074515033160336315,-0.001120348082727287
1782943321984141000,0.34814111328125,-0.10548632734417915,-0.004749715277738869,-0.006129426682705525
1782943321994126000,0.3581259765625,-0.09755787243247031,-0.0007685001544654368,0.004105462557449937
1782943322004110000,0.368110107421875,-0.09980477457642555,-0.010226831514574587,0.002673345111811068
1782943322014095000,0.37809521484375,-0.10818155777752399,0.009225929110031575,-0.0026783455139142457
1782943322024080100,0.388080078125,-0.10787994448244571,0.0026684337579645214,0.0034809876832878213
1782943322034065000,0.39806494140625,-0.09336217430830002,0.0037555166086181997,0.0034542709230096077
1782943322044050000,0.4080498046875,-0.10054010311365127,0.0002627425894141197,-0.0006454582966864109
1782943322054035000,0.418034912109375,-0.08931728283166884,-0.003472352285683155,-0.0008181205830071121
1782943322064020000,0.42802001953125,-0.10098901592493056,0.006855674581043422,-0.005240759330848232
1782943322074005200,0.438005126953125,-0.0960509750008583,-0.002285663251765072,0.0029830754979746415
1782943322083989000,0.447989013671875,-0.09784545720219612,0.0029064620312303302,0.001907694501557853
1782943322093974000,0.45797412109375,-0.09589783026576042,0.00654768634410575,-0.004027264488395303
1782943322103959000,0.467958984375,-0.10278174456059933,-0.0010471344327554106,-0.00145095229356084
1782943322113944000,0.477944091796875,-0.09395371046066284,-0.007753390605747699,-0.0010039277619798667
1782943322123929000,0.48792919921875,-0.10652385369837283,-0.0019035685990005731,-0.004485794511390849
1782943322133914000,0.4979140625,-0.10592471876144409,-0.002067581787984818,-0.0031367385395918972
1782943322143899000,0.50789892578125,-0.0976934815108776,-0.009269256795104593,0.0012942433449090458
1782943322153884000,0.5178837890625,-0.09514671963751316,0.0009193068020045756,-0.001293848335975781
1782943322163868000,0.527867919921875,-0.10621697970628738,0.006187401664350181,-0.004131110738648567
1782943322173853000,0.53785302734375,-0.1009790790528059,0.004063413514010608,-0.005604619640600867
1782943322183838200,0.547838134765625,-0.0912538038522005,-0.0006846395296044647,-0.003069886131747626
1782943322193823000,0.557822998046875,-0.10412088420987128,-0.00015791224176064133,0.0082565954541089
1782943322203808000,0.56780810546875,-0.09663900402188301,0.004332220518030226,0.004644186243764124
1782943322213793000,0.57779296875,-0.09484335277676582,-0.004658529862947762,0.0033877541585941797
1782943322223778000,0.587778076171875,-0.09559387888312339,-0.0012717004362493753,0.00021353315282613038
1782943322233763000,0.59776318359375,-0.09679331780076027,0.00286717120045796,0.0066614238007110535
1782943322243747000,0.6077470703125,-0.08886310932338237,0.00004997662156820297,0.007382486350566614
1782943322253731800,0.61773193359375,-0.09754267486333847,0.006354428794328123,0.0034815699218888763
1782943322263716900,0.627716796875,-0.10263210695683955,-0.0027086744368076325,-0.001750334815646056
1782943322273702000,0.637701904296875,-0.10921908413171767,-0.0018376637559384106,-0.0011516770860413089
1782943322283687200,0.647687255859375,-0.09006254824101924,0.002978613951988518,-0.005128501445276197
1782943322293672200,0.657672119140625,-0.09649345807135104,-0.004210311171412468,0.0017657173311570657
1782943322303657000,0.667656982421875,-0.09230068255662918,-0.0037401729090139266,-0.015010832654405384
1782943322313642000,0.67764208984375,-0.10217734892666339,-0.001495882847253233,-0.008679540423781145
1782943322323627000,0.687626953125,-0.1071136362850666,0.0039641726569272576,0.0022132830021437257
1782943322333611000,0.697611083984375,-0.09259878872036933,0.0020020605374127627,0.006085366061981767
1782943322343596000,0.707595947265625,-0.08541443017423152,0.0026899697363376614,0.0014031173967290669
1782943322353581000,0.7175810546875,-0.09529168106615543,0.0033152254952117798,-0.001410718464583624
1782943322363565800,0.72756591796875,-0.10247837769985198,0.00018576836306601763,0.005963500097848009
1782943322373551000,0.737551025390625,-0.10143149899542331,-0.005933207707572728,0.005390495116019156
1782943322383536000,0.7475361328125,-0.09424597140550613,-0.006042842094507068,-0.00787441175308777
1782943322393521200,0.757521240234375,-0.09379764311611652,-0.0018291333896107971,-0.005996587233408354
1782943322403506000,0.767505859375,-0.10636486374437808,-0.0035488150553777812,0.0012018866030499339
1782943322413490200,0.777490234375,-0.10501695626676082,-0.004208575872052461,0.0020512425745371726
1782943322423475000,0.787474853515625,-0.09693652566373348,-0.005096720350813121,-0.008624376170441973
1782943322433460000,0.7974599609375,-0.09109890555143356,-0.007703560114651918,-0.006799633544869721
1782943322443445000,0.807445068359375,-0.09917875163257121,0.0019916304749436676,-0.0016617477833176962
1782943322453430000,0.817429931640625,-0.10217208822965622,-0.0014266535359434783,-0.007341827829903923
1782943322463414800,0.827414794921875,-0.09468786995410919,0.0001201375146396458,0.003312047157436609
1782943322473400000,0.837400146484375,-0.10142097760140895,-0.0011114683732390404,0.002633214030822273
1782943322483381000,0.847381103515625,-0.10635551139414309,0.0033810390067286786,0.0004954599333228543
1782943322493365000,0.857364990234375,-0.10351298144459724,-0.003629588674008846,-0.0013300521605182438
1782943322503350000,0.86735009765625,-0.11503507693409919,0.002957936490140855,0.0038010362507775422
1782943322513335000,0.8773349609375,-0.10321370623707771,0.0031105697685852645,0.00552944921227172
1782943322523320300,0.8873203125,-0.09842296482920646,-0.007313629215303808,-0.005361200522875879
1782943322533305000,0.89730517578125,-0.09752455468475818,-0.0007621252126060426,-0.003929331955697853
1782943322543290000,0.9072900390625,-0.10725041440725326,0.0035346769321709867,0.0066936158871278165
1782943322553275100,0.917275146484375,-0.10500643487274647,-0.005863722667936235,-0.00489201439183671
1782943322563260200,0.92726025390625,-0.09512859945893287,-0.002958703675121069,-0.007778193970152642
1782943322573244200,0.937244140625,-0.10051730675995349,0.007457622529566287,0.0027854500170447862
1782943322583229200,0.947229248046875,-0.10515548795461654,-0.0024232085589319468,0.0020821126368362457
1782943322593214000,0.9572138671875,-0.10201309827566146,-0.002127495281677693,0.008206673631467857
1782943322603199000,0.967198974609375,-0.09812427414357662,0.005870481202285736,0.002130344825889915
1782943322613184300,0.977184326171875,-0.10470482157766818,-0.003098313075210899,0.005452666782168671
1782943322623169300,0.987169189453125,-0.11517653123140334,0.0018849004311487078,-0.004045553630334325
1782943322633154000,0.997154052734375,-0.10395721808075904,-0.005912530245725065,-0.013375070979003794
1782943322643139000,1.00713916015625,-0.10200842210054396,-0.00500706930598244,0.0015408499335637315
1782943322653123000,1.017123046875,-0.0993102690577507,-0.0046078591216355555,0.006488720415194984
1782943322663108000,1.027108154296875,-0.09407412196993828,-0.002028108294121921,0.004215450854122173
1782943322673093000,1.037093017578125,-0.09871697933971882,-0.007542451268807053,0.003016824787238147
1782943322683078100,1.047078125,-0.10560030911266803,0.0006779723268002272,-0.0029961450421018524
1782943322693063000,1.05706298828125,-0.09482464807629584,-0.0002938135811127722,0.00431793626435101
1782943322703048000,1.0670478515625,-0.0942255131393671,0.0032714776850305497,-0.0035996935759554614
1782943322713033200,1.077033203125,-0.10245324325859546,-0.006242017928417771,-0.0033883866295451297
1782943322723018200,1.087018310546875,-0.09556874444186687,-0.0038876916209235786,0.001974320863827597
1782943322733002200,1.097002197265625,-0.0933235958635807,0.004163859947491437,0.005342680768785067
1782943322742987300,1.1069873046875,-0.0994587376177311,0.00015038652243092656,0.00047367964306613427
1782943322752972000,1.116971923828125,-0.09676642979383468,-0.0025112704348750413,-0.003004275832918938
1782943322762957000,1.12695703125,-0.10634382095634937,-0.00010864800624549389,-0.002301310628757346
1782943322772942000,1.136942138671875,-0.10529343512058258,-0.0042611280431970955,0.00849521281584166
1782943322782927000,1.146927001953125,-0.10514204395115374,-0.0025439671280793846,-0.004362885084352456
1782943322792912100,1.156912109375,-0.10155132598280905,-0.005507566174026578,-0.006685046704893466
1782943322802897200,1.166897216796875,-0.10035247158706187,-0.00411379199437797,-0.0023218876259052195
1782943322812882200,1.176882080078125,-0.09646364745497703,-0.004657105090841651,-0.004256746412313077
1782943322822866200,1.1868662109375,-0.0967617536187172,-0.002788151147495955,-0.0001401619559386745
1782943322832851200,1.196851318359375,-0.10364391434788703,0.00258329449146986,0.0031742324222112073
1782943322842836200,1.206836181640625,-0.11337035859227179,-0.005797361167147756,-0.001482187682040967
1782943322852821000,1.216821044921875,-0.09167524413466453,0.0038813714779913425,-0.0057709640672779635
1782943322862806000,1.226805908203125,-0.09107786276340483,-0.0016291538381017743,-0.0022051613444811664
1782943322872791000,1.236791015625,-0.09122750036716461,-0.007002736635226756,-0.011591982387937605
1782943322882776000,1.246776123046875,-0.10244798256158828,-0.0009586158990859985,-0.004231148463464342
1782943322892761000,1.256760986328125,-0.09900631767511367,-0.006179181825276464,0.0002493670846102759
1782943322902745000,1.2667451171875,-0.10663958903253078,-0.004765241640433669,-0.001171754042978864
1782943322912730000,1.276730224609375,-0.097959438970685,0.003412950248643756,-0.0037459336462314237
1782943322922715100,1.286715087890625,-0.09840835178196429,0.0035502946264110505,0.0052339642638806255
1782943322932700200,1.2967001953125,-0.11112404097020626,0.005797014107275754,0.015329862875165417
1782943322942685200,1.306685302734375,-0.09780863232314586,0.0003632803544402122,0.008592359897249843
1782943322952670200,1.316670166015625,-0.09631108724176883,0.0006068067867308855,-0.002655793472100049
1782943322962655000,1.326655029296875,-0.10738426991999149,-0.00854176450446248,0.0035845051399781367
1782943322972640000,1.336639892578125,-0.09496434880793093,0.0018068850251846014,-0.0004041306713479571
1782943322982624000,1.3466240234375,-0.09930383931696414,0.0026913945084437725,-0.014619150472676846
1782943322992609000,1.356609130859375,-0.10349252317845821,-0.000024422055203467605,0.0017862463792436755
1782943323002594000,1.366593994140625,-0.09227028741836547,-0.000006283610314130783,0.004533597442181781
1782943323012579300,1.376579345703125,-0.09002630788385868,0.00314679185943678,-0.0025860321545391344
1782943323022564000,1.386564208984375,-0.10499299086928367,0.0010499474443495273,-0.004064491226244717
1782943323032549000,1.396549072265625,-0.10199790070652962,-0.0036968452239409086,-0.0059538006877410225
1782943323042534100,1.4065341796875,-0.08643558991551399,-0.004882146018370986,0.0036221177536062896
1782943323052519200,1.416519287109375,-0.08404197277724743,-0.001124894110392779,-0.005056721700564958
1782943323062503200,1.426503173828125,-0.09706102882623673,-0.004388809543475508,-0.002308402523247059
1782943323072488200,1.43648828125,-0.10888298404514789,-0.0005919745437800884,-0.003059784862841479
1782943323082473000,1.446472900390625,-0.11157762995660304,-0.000250558961275965,-0.00124502477516653
1782943323092458000,1.4564580078125,-0.10245090517103671,-0.0013891893360763788,-0.0011352807903778738
1782943323102443300,1.466443359375,-0.08883622131645678,0.0012618731619790196,0.00024126825983403249
1782943323112428300,1.47642822265625,-0.10155717120170593,-0.0052538836739026,0.011428160995198413
1782943323122413000,1.4864130859375,-0.089585578379035,-0.002309135458897799,0.00540230428482173
1782943323132398000,1.496398193359375,-0.10350012196302413,-0.0020956936376169324,-0.007907898464158642
1782943323142382000,1.506382080078125,-0.11023439865410327,0.008400894729048014,-0.004913182760740165
1782943323152367000,1.5163671875,-0.10424714093804359,-0.0033606172732077535,-0.006805734492093324
1782943323162352000,1.52635205078125,-0.10095394461154937,-0.0016319485833868384,-0.005100681856588926
1782943323172337200,1.536337158203125,-0.10185177023410796,-0.005973649315815418,-0.0022076113131828607
1782943323182322000,1.546322021484375,-0.10753683013319969,-0.00617240502461791,-0.001806832509546075
1782943323192307000,1.556306884765625,-0.1063379757374525,-0.00010751549508422613,0.007876982736086937
1782943323202292200,1.566292236328125,-0.10005202733576297,-0.004644044679868966,-0.0076275791188585565
1782943323212277200,1.57627734375,-0.09361936393976211,-0.013090148523822426,-0.0036987152373301794
1782943323222261200,1.58626123046875,-0.10678864211440085,-0.005712167101725936,0.006126983563869725
1782943323232246300,1.596246337890625,-0.10080430700778961,0.004519322321657091,0.0029501116600004025
1782943323242231000,1.60623095703125,-0.10409808785617351,0.006558006808720529,-0.00795079460768029
1782943323252216000,1.616216064453125,-0.10394903477430344,0.0008721614583395421,-0.004559658898622729
1782943323262201000,1.626201171875,-0.10140694907605648,-0.0017416195029392838,-0.004865822787943761
1782943323272186000,1.63618603515625,-0.09751578685641288,0.004811163141392171,-0.001875123389228247
1782943323282171100,1.646171142578125,-0.10051029249727725,0.005012165606208145,-0.008156566862447652
1782943323292156000,1.656156005859375,-0.10724281562268734,0.0024244506679475305,-0.0066049694892950355
1782943323302141200,1.66614111328125,-0.09945990666151046,0.001283135145716369,0.00036049245902104304
1782943323312125200,1.676125244140625,-0.09078384825289249,-0.0027713461431674658,-0.002988811119017191
1782943323322110200,1.686110107421875,-0.1000596261203289,-0.007478446121886372,-0.005135150381771382
1782943323332095200,1.69609521484375,-0.10365034408867359,0.0009074154348112642,-0.002904989310062956
1782943323342080000,1.706080078125,-0.11247954723238944,0.003337126799765974,0.005877321935025975
1782943323352065000,1.71606494140625,-0.10080430700778961,-0.00371116601023823,-0.011718211716646328
1782943323362050000,1.726050048828125,-0.10229834495782851,0.00009471081243827939,-0.01008919715915108
1782943323372035000,1.73603515625,-0.0954109235316515,0.0006521802984178066,-0.005851876966515556
1782943323382020000,1.74602001953125,-0.09301613734960555,-0.0011792911787517368,-0.00044511570228496564
1782943323392004000,1.756004150390625,-0.10648293716609478,0.00028625132916495203,0.0057764713594573545
1782943323401988900,1.76598876953125,-0.11321721385717391,-0.003104761082306504,-0.001493887252989225
1782943323411974100,1.77597412109375,-0.1075315694361925,0.0007980002435855567,0.000506285004725214
1782943323421959200,1.785959228515625,-0.10603285531103611,0.00011540654059499501,0.0021293447454692797
1782943323431944200,1.795944091796875,-0.10498539208471774,-0.012879081322718412,-0.006821320220292545
1782943323441929200,1.80592919921875,-0.10693243449926376,-0.009681344727333634,-0.005780754808930214
1782943323451914000,1.8159140625,-0.09167056795954703,-0.002901840655039996,-0.0065433412458398375
1782943323461899000,1.82589892578125,-0.1006476551413536,-0.007730685583595186,0.003529509849997703
1782943323471883000,1.835883056640625,-0.08433715633153915,-0.004433616799581795,0.006396706166630611
1782943323481868000,1.845867919921875,-0.0985515596449375,-0.0050699602080509065,-0.00608916545426473
1782943323491853300,1.855853271484375,-0.10692775832414626,-0.003405862920731306,-0.008094137184682767
1782943323501838300,1.86583837890625,-0.10633096147477626,-0.0051296179734170435,0.0012889050160883925
1782943323511823400,1.8758232421875,-0.099153032669425,0.0037457989322021604,0.0014975770474178716
1782943323521808400,1.885808349609375,-0.09721125095188617,-0.008519150813855231,-0.00032761538601480423
1782943323531793400,1.89579345703125,-0.10394669668674468,-0.001851235623564571,-0.004434146522544324
1782943323541778400,1.9057783203125,-0.11112930166721344,-0.0010774930384010075,0.007086725124251097
1782943323551762400,1.915762451171875,-0.10529518868625164,0.0009486424943432212,0.00005858690299792215
1782943323561747200,1.925747314453125,-0.0982645593971014,-0.004790595277398824,-0.008237607625848613
1782943323571732200,1.935732177734375,-0.10814297933280467,0.00325399682726711,-0.00513694504663581
1782943323581717200,1.94571728515625,-0.11023732126355171,0.006244703075848519,-0.010761664477060548
1782943323591702500,1.95570263671875,-0.09093348585665226,-0.004867240710183978,-0.0037608617873047478
1782943323601687600,1.9656875,-0.10470131444633006,0.001787541003897786,-0.005299172703910153
1782943323611672300,1.97567236328125,-0.1066471878170967,0.006292195479385554,0.002036636377160903
1782943323621657300,1.9856572265625,-0.09347907868623732,0.0002882058242335915,0.0007317095247446559
1782943323631641300,1.995641357421875,-0.09751870946586132,-0.0016881357500329612,0.002876176490820944
1782943323641626400,2.00562646484375,-0.1099415531873703,0.00037091567162424324,0.0021160582889220678
1782943323651611400,2.015611328125,-0.11098843189179897,0.003477265922818333,0.00012603524917503817
1782943323661596400,2.025596435546875,-0.10754793604910373,0.0034067031709477304,-0.006108356495213229
1782943323671581200,2.035581298828125,-0.10036766915619373,-0.0035049211147241293,-0.008918792539753485
1782943323681566200,2.045566162109375,-0.10485562822520732,0.0057305247423239045,-0.0006347359732724726
1782943323691551500,2.055551513671875,-0.09618073886036872,-0.0026346593525260684,0.0036025202872813676
1782943323701536500,2.06553662109375,-0.1009703112244606,0.0002832373881712556,0.00006957637118175626
1782943323711520500,2.0755205078125,-0.10111994882822035,-0.005279310376103967,-0.00010444903845200314
1782943323721505300,2.08550537109375,-0.09737842421233653,-0.003484901240002364,0.0005589878729195334
1782943323731490300,2.095490234375,-0.10321429075896739,-0.0006217668938450515,-0.0002580504312762059
1782943323741475300,2.105475341796875,-0.09677928927540778,0.0013058401678688824,0.007559500585019122
1782943323751460400,2.11546044921875,-0.09573182604908943,0.005070599528867751,0.0053975185118499205
1782943323761445400,2.1254453125,-0.09812368962168692,0.004955521781835705,0.002240737264649942
1782943323771430100,2.13543017578125,-0.09677695118784904,-0.00040361236482858653,0.006094072241534013
1782943323781415400,2.14541552734375,-0.10306406863331793,0.005103972075507044,-0.0027566919967299324
1782943323791400400,2.155400390625,-0.10351590405404568,0.0011843509463593364,0.0013722952834912575
1782943323801384400,2.165384521484375,-0.09918050519824027,0.0031702092676423486,-0.003868891022331081
1782943323811369500,2.175369384765625,-0.09469196160733699,0.004555745341908187,-0.002991247387987096
1782943323821354500,2.1853544921875,-0.09229659090340137,-0.001331449533160776,0.0031339803269249387
1782943323831339300,2.19533935546875,-0.1009744028776884,0.003093034111894667,0.0022219572156551293
1782943323841324300,2.20532421875,-0.11279577357470988,0.00038812253475189204,0.01360106175460387
1782943323851309300,2.215309326171875,-0.08855155915617942,-0.0033435565405525265,-0.005017713997582904
1782943323861294300,2.22529443359375,-0.10935060155689716,-0.016389244868140668,-0.004833619285083841
1782943323871279400,2.235279296875,-0.10126783286631107,0.0011990735914558172,-0.003989019403816201
1782943323881263400,2.245263427734375,-0.09797405201792717,-0.003204531662352383,-0.0056348891979898326
1782943323891248400,2.255248291015625,-0.09602350247204303,0.004214165362622589,-0.0035987186117097734
1782943323901233400,2.2652333984375,-0.0981166753590107,-0.00605520838573575,-0.005691754501359537
1782943323911218400,2.275218505859375,-0.09571721300184727,-0.0032926666035316882,-0.0015561160013545304
1782943323921203500,2.285203369140625,-0.10694120232760905,-0.001925908294972032,-0.001919211409415584
1782943323931188200,2.295188232421875,-0.0984124434351921,-0.0030967969715595244,0.005921024079434573
1782943323941173200,2.30517333984375,-0.105296357730031,-0.0003856200504116714,0.01183805697034113
1782943323951158300,2.315158203125,-0.09526771566867828,0.0005467654288746416,0.0003815124141634442
1782943323961142300,2.325142333984375,-0.09886310981214046,0.0008827741838991641,0.003306690562306903
1782943323971127300,2.335127197265625,-0.10185761545300483,0.003786898127570748,-0.000059580133552663024
1782943323981112300,2.3451123046875,-0.09811550631523132,-0.0005947875553742051,0.005834930398291908
1782943323991097300,2.355097412109375,-0.09901450098156929,-0.00967246730113402,-0.0034037645784788764
1782943324001082400,2.365082275390625,-0.09198387169241905,-0.005525156629644334,-0.0007185235328972339
1782943324011067400,2.3750673828125,-0.10171206950247287,-0.0033688736448995765,-0.003103740452288184
1782943324021052400,2.385052490234375,-0.09827157365977764,0.001624404597748071,-0.0033216483861324376
1782943324031037400,2.395037353515625,-0.1033580831438303,0.003379321973677724,0.0019930712300701998
1782943324041021400,2.405021484375,-0.10156184737682342,0.0006964395652525126,-0.00417174185984768
1782943324051006200,2.415006103515625,-0.09901683906912803,0.000049337300751358265,-0.008538997158640996
1782943324060991200,2.4249912109375,-0.1066477723389864,0.0004617174939252436,0.0016559756296570412
1782943324070976300,2.434976318359375,-0.10125964955985546,-0.007041077617928385,-0.005632994068425614
1782943324080961500,2.44496142578125,-0.10798632746636867,-0.009219499369245023,-0.0032265699642244723
1782943324090946600,2.454946533203125,-0.12803367471694946,-0.00038642376800999045,0.000005740187619812786
1782943324100931300,2.464931396484375,-0.09840718273818493,0.00671591905048117,-0.007972533798741643
1782943324110916400,2.474916259765625,-0.0999029742538929,0.0018916224328801034,-0.007016495732520707
1782943324120901400,2.4849013671875,-0.08898235178887844,-0.008056940129585563,-0.00019402016818057744
1782943324130885400,2.494885498046875,-0.091532620793581,-0.006354191332310438,-0.00195721674868837
1782943324140870400,2.504870361328125,-0.10574585506319999,-0.004008742451015859,0.00893354943417944
1782943324150855400,2.51485546875,-0.13462591258883475,0.0016606084222905338,0.009349343143857549
1782943324160840200,2.524840087890625,-0.09152502200901508,0.0013367284964770079,-0.004038441186246928
1782943324170825200,2.5348251953125,-0.12115209850966929,-0.004413249864988028,0.009355807133973576
1782943324180810500,2.544810546875,-0.07012509110569953,-0.0032321868542581796,-0.003845021522976458
1782943324190795500,2.55479541015625,-0.11262392413914203,-0.003893883899692446,0.004154694826924242
1782943324200780300,2.5647802734375,-0.10514321299493312,-0.0013138225449249147,0.008875001347088254
1782943324210764300,2.574764404296875,-0.10170388619601727,-0.0015141308899968861,0.004550043970195111
1782943324220749300,2.584749267578125,-0.09182721982598305,0.0023499606596305966,-0.0018081933495705015
1782943324230734300,2.594734375,-0.09856383460462093,-0.008910981409344822,-0.0022047777519910595
1782943324240719400,2.60471923828125,-0.10185703093111514,0.0019194968204945325,0.0032279741867328993
1782943324250704400,2.614704345703125,-0.09602350247204303,0.001570007529389113,0.0029392820220207794
1782943324260689200,2.624689208984375,-0.10051379962861537,0.002179901322349906,0.0023516959589906035
1782943324270674400,2.63467431640625,-0.10649813473522662,0.003328267639875412,0.002307507474103477
1782943324280659500,2.644659423828125,-0.10874269879162311,-0.0026460209967568513,-0.0036972333830082786
1782943324290643500,2.6546435546875,-0.09811784440279006,-0.00326331264488399,-0.0031432344957487658
1782943324300628500,2.66462841796875,-0.10275719464123248,-0.003985379841737449,0.0011277390880277379
1782943324310613500,2.674613525390625,-0.09677285953462124,-0.002427592473104596,-0.003097043566731736
1782943324320598300,2.684598388671875,-0.11173311277925968,0.0020952552461996673,0.004908618466765619
1782943324330583300,2.694583251953125,-0.10515022725760936,-0.002208926487434655,0.0007685207040631211
1782943324340568300,2.704568359375,-0.10140870264172554,0.003018160511087626,-0.006691848621726967
1782943324350553300,2.71455322265625,-0.0952712228000164,0.003985142379719764,0.005640764099638909
1782943324360538400,2.724538330078125,-0.10290449415743351,0.0007704363832250236,-0.004661822365154512
1782943324370523400,2.7345234375,-0.09736848734021186,0.002442552580218762,-0.0033694467503461055
1782943324380507100,2.744507080078125,-0.10155775572359561,0.001239807460643351,0.0015778917250339872
1782943324390492400,2.754492431640625,-0.09766425541639327,0.0006723463036119937,0.0019421767264720983
1782943324400477400,2.7644775390625,-0.10125614242851734,0.0068657941162586205,0.002051452637091279
1782943324410462500,2.77446240234375,-0.10753975274264811,0.003831778448913246,-0.005295382444781716
1782943324420447200,2.784447265625,-0.09826105226576327,-0.0037154768591746686,-0.0008049505741801112
1782943324430432300,2.794432373046875,-0.10245207421481609,-0.003981397786363959,0.0013181950426544061
1782943324440417300,2.804417236328125,-0.10215338352918624,-0.0011096600086428225,0.0036392287186114117
1782943324450402300,2.81440234375,-0.09422200600802898,-0.004417542447615414,-0.0056076290150173
1782943324460386300,2.82438623046875,-0.09706219787001609,-0.004959832630772144,0.0030406531873974018
1782943324470371300,2.834371337890625,-0.10529168155491352,0.003247494021244347,0.00005352256881305947
1782943324480356400,2.8443564453125,-0.10424480285048485,-0.0003508592642843723,-0.0026437103086616844
1782943324490341600,2.854341552734375,-0.08987959288954735,-0.0007817797611467539,0.000021641009650193152
1782943324500326700,2.86432666015625,-0.09781213945448398,0.004839293257333338,0.007693408613395876
1782943324510311700,2.874311767578125,-0.0999070659071207,0.00021967063266783952,-0.0005940386367030441
1782943324520296400,2.88429638671875,-0.10319909318983554,0.007709387067239731,-0.003656743825704325
1782943324530281500,2.894281494140625,-0.09616787937879562,-0.003294602832291275,0.0019144050868460907
1782943324540265500,2.904265380859375,-0.11053308933973312,-0.0035671178970485924,0.0022208749368437565
1782943324550250500,2.91425048828125,-0.09093348585665226,-0.004510426629148423,-0.0008039230942958965
1782943324560235500,2.924235595703125,-0.10425181711316107,0.0013656075310893355,-0.0007507886845502071
1782943324570220800,2.934220703125,-0.09796528418958186,-0.006036668082047254,0.002569624442432541
1782943324580205600,2.94420556640625,-0.09931377618908882,-0.0054928435289300975,0.005341178364865482
1782943324590190600,2.954190673828125,-0.1054495024651289,0.002310377567913383,0.006405186300608329
1782943324600175600,2.964175537109375,-0.09512275424003601,0.008661500160302966,0.004134067597426474
1782943324610160600,2.97416064453125,-0.09796411514580249,-0.005331004030723124,-0.006534281156549695
1782943324620145700,2.984145751953125,-0.09646832363009453,-0.0026208865555003283,0.0024039969683857633
1782943324630129700,2.994129638671875,-0.10858780049085616,0.0010696750581264496,0.004840366402990184
1782943324640114400,3.004114501953125,-0.09646598554253577,0.00042381490264087915,-0.012048704046336933
1782943324650099500,3.014099365234375,-0.10215162996351718,-0.003196768481004983,0.0005331912779598496
1782943324660084500,3.02408447265625,-0.10455050779879092,0.0005749686100520193,0.0024659380223834887
1782943324670069800,3.03406982421875,-0.0903343509197235,-0.0018288045960478483,0.005795895295846276
1782943324680054800,3.0440546875,-0.10380348882377147,-0.002356390400417149,0.010032126359804532
1782943324690039600,3.05403955078125,-0.09736790281832218,0.00420877680145204,0.010415150311042088
1782943324700024600,3.064024658203125,-0.10634791260957717,-0.003941193640138954,0.007552520571672357
1782943324710009600,3.074009521484375,-0.09542436753511428,-0.0009575564531609415,0.007796620109409559
1782943324719993600,3.08399365234375,-0.0921340938180685,0.0019563947647809983,-0.004704255001083947
1782943324729978600,3.093978515625,-0.1002168625086546,0.006835015385504812,-0.00465189919276163
1782943324739963600,3.103963623046875,-0.09527823706269263,-0.003954619377292692,-0.005282981904223561
1782943324749948400,3.113948486328125,-0.11697452056407928,-0.004149192101322114,0.005978727349732071
1782943324759933700,3.12393359375,-0.1157756661683321,-0.004076967115327716,0.007446920755750034
1782943324769918700,3.133918701171875,-0.09407646005749702,0.0006438691277988255,0.000003397533483803272
1782943324779903700,3.14390380859375,-0.10260463442802428,0.0020908347994089125,0.0006292058482067659
1782943324789888500,3.153888427734375,-0.09811492179334164,-0.006018273908831179,-0.0014623938528937287
1782943324799872500,3.16387255859375,-0.10140870264172554,-0.004308108990080654,0.0017755971210659481
1782943324809857500,3.173857421875,-0.09796586871147155,-0.0007446626211516558,0.008421113249880726
1782943324819842600,3.183842529296875,-0.0928793592274189,0.002447009559627622,0.0039668920536874794
1782943324829827600,3.19382763671875,-0.11323299594819546,-0.0016275098702870309,0.01178167344087269
1782943324839812600,3.2038125,-0.10844517714977264,-0.006434252564888447,0.001421331190143246
1782943324849797400,3.21379736328125,-0.10515139630138873,-0.0028939678758382794,-0.0049495806648163125
1782943324859782700,3.22378271484375,-0.10215689066052436,0.0009154708771035075,-0.0030628330531646494
1782943324869767700,3.233767578125,-0.09947042805552482,0.0031677615822292863,0.006144316007872111
1782943324879751700,3.243751708984375,-0.0943827495276928,-0.0031404717165045438,0.002054621841711923
1782943324889736700,3.25373681640625,-0.11383505349457264,-0.0019482479909434913,0.0011336687886039725
1782943324899721700,3.2637216796875,-0.10994856745004654,0.007187701280694454,0.002637705259560607
1782943324909706500,3.27370654296875,-0.09947393518686294,-0.0010326309833675622,0.0035388781832531094
1782943324919691500,3.28369140625,-0.09932722019255161,-0.004480926540028304,-0.00571441614102805
1782943324929676500,3.293676513671875,-0.10321955145597457,-0.00034433819195255636,0.0005537408756441436
1782943324939661600,3.30366162109375,-0.10681845273077488,-0.0016865831137634812,0.0018548934519523753
1782943324949646600,3.313646484375,-0.10622516301274298,0.00839621855393052,0.0007475441314047202
1782943324959631600,3.323631591796875,-0.09634791212081908,0.004779343231022358,-0.0020525257827481254
1782943324969615600,3.33361572265625,-0.09514964224696158,-0.0035044827233068642,0.0007436488409992307
1782943324979600600,3.3436005859375,-0.09919161111414432,0.0004420446790754795,0.007898011824383865
1782943324989585700,3.353585693359375,-0.0911100114673376,-0.008580269883945583,-0.0034452656326466238
1782943324999570700,3.36357080078125,-0.10278174456059933,-0.0015649294954724609,0.007385265112831257
1782943325009555500,3.373555419921875,-0.09829086288213729,0.0007743453733623027,-0.007948385738173965
1782943325019540500,3.38354052734375,-0.09828852479457854,-0.004565645681414753,0.005271165885555092
1782943325029525500,3.393525390625,-0.10322773476243019,-0.005401384119503199,0.00814214332816191
1782943325039510500,3.403510498046875,-0.10442483559250831,0.002506575993448496,0.002463862513017375
1782943325049495800,3.413495849609375,-0.10337328071296215,0.007579276147857308,0.003788795540423598
1782943325059479800,3.423479736328125,-0.11489654524624347,0.0046102337418124075,-0.00724550273240311
1782943325069464600,3.433464599609375,-0.09963409418463706,-0.0010411978823132812,0.00040991652474040165
1782943325079449600,3.44344970703125,-0.0937988121598959,-0.002656231863517314,0.001149402930564247
1782943325089434600,3.4534345703125,-0.09963350966274738,0.00326486528115347,0.009712902059510815
1782943325099419600,3.463419677734375,-0.11085399185717106,0.002277918336726725,0.008806731017003766
1782943325109404700,3.47340478515625,-0.1041243913412094,-0.003103573772218078,0.007833118478185496
1782943325119389400,3.483389404296875,-0.09664134210944175,-0.0046368660204112525,-0.0017482090739300473
1782943325129374500,3.49337451171875,-0.09454466209113598,-0.002162073404714465,-0.00024836243761237707
1782943325139358500,3.5033583984375,-0.09200082282721996,-0.0005171009429730475,-0.0014521692864014767
1782943325149343500,3.513343505859375,-0.09664134210944175,-0.004335636317823082,-0.004395104570232797
1782943325159328800,3.523328857421875,-0.10966039815843105,0.00436431442303583,-0.0015912192807765676
1782943325169313800,3.533313720703125,-0.10547288334071636,-0.0003390957612544298,0.0009610293351695873
1782943325179298600,3.543298583984375,-0.09784078102707862,-0.00007377762226387858,0.001848146334046032
1782943325189283600,3.55328369140625,-0.10262743078172207,0.0019273330670781432,-0.005453386018087622
1782943325199268600,3.5632685546875,-0.11160101083219051,-0.005008603675942868,-0.008037082368356641
1782943325209253600,3.573253662109375,-0.10785656360685825,-0.0012516805615276098,-0.010007021601300221
1782943325219238400,3.58323828125,-0.11189444082081318,-0.0022064422694034872,-0.00047358146165497596
1782943325229222700,3.59322265625,-0.10186579875946045,-0.0048483350803144275,-0.000454895027494058
1782943325239207400,3.60320751953125,-0.0912409443706274,0.006056213032733649,0.002124643454176839
1782943325249192700,3.613192626953125,-0.09079027799367904,0.0007525719329714775,-0.00371999320408795
1782943325259177700,3.623177734375,-0.0889922886610031,0.0025950031955726443,-0.0048730493964627385
1782943325269162800,3.633162841796875,-0.10874854401051998,0.0003752447868697345,0.006491905602836049
1782943325279147500,3.6431474609375,-0.0975233856409788,0.00011940686227753758,0.0004310506443143822
1782943325289132500,3.653132568359375,-0.09528291323781013,0.0019414529239758847,0.00703153803802561
1782943325299117600,3.66311767578125,-0.08406009295582771,-0.00210236084042117,0.0007666506906738505
1782943325309101600,3.6731015625,-0.0976765303760767,-0.0003527224278077483,0.007933841189590748
1782943325319086600,3.683086669921875,-0.08750000427663326,0.0006393756157718598,-0.0034527434029150753
1782943325329071600,3.693071533203125,-0.10515782604217529,-0.00321801219843328,0.006723232423968147
1782943325339056400,3.703056396484375,-0.0909445917725563,-0.001618175786361098,-0.0001409542570938356
1782943325349041700,3.713041748046875,-0.09124328245818615,0.0022427556918002663,0.00033851808923063796
1782943325359026700,3.723026611328125,-0.09438333404958248,0.0041088600909337395,-0.00639453475914197
1782943325369011700,3.73301171875,-0.09513035302460193,0.0142514656544663,0.001785157250566408
1782943325378996700,3.742996826171875,-0.09842238030731677,-0.00028259806735441085,0.010829788676672614
1782943325388981500,3.7529814453125,-0.09752455468475818,0.00031527649424970146,0.006486809302610344
1782943325398965500,3.762965576171875,-0.10336334384083748,-0.003451546959672123,0.006321622503269463
1782943325408950500,3.772950439453125,-0.09767945298552512,-0.0006664462857879698,-0.0055458272416261025
1782943325418935600,3.782935546875,-0.09124386698007583,0.006464592904224992,-0.007141919060342479
1782943325428920600,3.792920654296875,-0.09213467833995818,0.00021461086506024003,0.0005748772785067557
1782943325438905600,3.802905517578125,-0.10380465786755085,0.0029947431028820573,0.015541994088771752
1782943325448890600,3.812890625,-0.09632277767956256,-0.002536185680422932,0.011911759244080167
1782943325458875600,3.822875732421875,-0.09662497549653053,0.003695329120289534,0.005126526400609873
1782943325468860700,3.832860595703125,-0.09916998380422591,0.007185564122535288,-0.00016849071799078955
1782943325478845700,3.842845703125,-0.09962240374684334,0.004040416230913251,0.006786753513698931
1782943325488828700,3.85282861328125,-0.10246668726205825,0.002451356941182166,-0.0009172906581428833
1782943325498813700,3.862813720703125,-0.10335983670949936,0.0006025324704125524,-0.003774812680843752
1782943325508798700,3.872798828125,-0.1072486608415842,-0.0003767791568301618,-0.0009225445052841678
1782943325518783700,3.88278369140625,-0.10350830526947974,0.005309486318659037,0.0009468455461901612
1782943325528768800,3.892768798828125,-0.09767126967906951,0.002276986754965037,-0.000351964375982061
1782943325538753800,3.90275390625,-0.0961772317290306,-0.0004864500763826072,0.0005880335876019672
1782943325548738800,3.91273876953125,-0.09647767598032951,-0.003122022744361311,-0.003885924355522729
1782943325558723600,3.9227236328125,-0.09917056832611561,0.0043034510812722145,-0.003522196476510726
1782943325568707600,3.93270751953125,-0.10021569346487522,-0.008677300517633556,-0.0014877634728793054
1782943325578692600,3.942692626953125,-0.10081482840180396,-0.003698324794974178,-0.00419073425468523
1782943325588677600,3.952677734375,-0.08645020296275616,-0.0006934438905678689,-0.003767026666610036
1782943325598662700,3.96266259765625,-0.10066752888560294,0.0031282515557482836,0.0051064722765586336
1782943325608648000,3.97264794921875,-0.09767360776662826,0.002766797832213342,0.005350939423765521
1782943325618632700,3.9826328125,-0.10036825367808341,-0.007508183673024177,0.003636785599775612
1782943325628617700,3.99261767578125,-0.09573065700531005,-0.004172171118110418,0.009442565252108032
1782943325638602800,4.002602783203125,-0.09543255084156989,-0.006249689778219908,0.006274584474170114
1782943325648587800,4.012587890625,-0.09647826050221919,-0.0004833082712255418,-0.003186502815317362
1782943325658571800,4.02257177734375,-0.09722761756479739,-0.008663399856444447,-0.0010807330249692313
1782943325668556800,4.032556884765625,-0.10366320357024669,-0.00263122528642416,0.004581400372972712
1782943325678541600,4.04254150390625,-0.1027647934257984,-0.0005708221578970551,0.006063702219445258
1782943325688526600,4.052526611328125,-0.09588146365284919,0.0019795199120417237,-0.00029387751319445666
1782943325698512000,4.062511962890625,-0.09797697462737559,0.008011256090644747,0.0016639991059084422
1782943325708497000,4.072496826171875,-0.09827800340056418,-0.004489438640046865,0.0004522623957018368
1782943325718481700,4.082481689453125,-0.09064940821826457,-0.003920863238163292,0.0028690069645177572
1782943325728466700,4.092466796875,-0.09723404730558395,-0.001341002812795341,0.0024701210071565584
1782943325738451700,4.10245166015625,-0.09723287826180457,0.00219579301122576,0.001902458920725621
1782943325748435700,4.112435791015625,-0.10381810187101363,0.004035813121031969,0.004137380649230908
1782943325758420700,4.122420654296875,-0.10411679255664348,0.0013125073706731199,0.004587791297852527
1782943325768405800,4.13240576171875,-0.11114859088957309,0.00591006429400295,0.001639092993515078
1782943325778390500,4.142390625,-0.09812602770924568,0.008877535797469317,0.004444512652931735
1782943325788375600,4.15237548828125,-0.09243804520070552,-0.003755425277072936,-0.004020012763701379
1782943325798360800,4.16236083984375,-0.09572773439586162,-0.0016213723904453217,-0.004842291215306613
1782943325808345900,4.172345947265625,-0.08989186784923076,0.0009197451934218406,-0.007165208604384679
1782943325818331000,4.182330810546875,-0.10051438415050507,0.0029361447834409774,-0.0018123900340753607
1782943325828315600,4.192315673828125,-0.09736965638399124,-0.004213909634295851,0.0024738473342033104
1782943325838299600,4.202299560546875,-0.11023615221977233,0.0024239026786759496,0.0019280249035335145
1782943325848284700,4.21228466796875,-0.11158172160983085,-0.007525901992805301,-0.0002481889076763764
1782943325858269700,4.222269775390625,-0.1025993737310171,0.00591938011161983,-0.005392180183029268
1782943325868254700,4.232254638671875,-0.08808452616631984,0.0036678017925471065,0.004037906896707136
1782943325878239700,4.24223974609375,-0.09915829336643218,-0.003616948388144374,0.0031949121673475016
1782943325888224800,4.252224853515625,-0.10424830998182297,-0.007561028105113655,-0.001966249438514933
1782943325898209800,4.262209716796875,-0.10230185208916663,-0.0035718854037113485,-0.0011416580155258998
1782943325908194800,4.27219482421875,-0.10783844342827796,0.004200666560232639,-0.0013854219098342582
1782943325918179800,4.282179931640625,-0.11532090813815593,-0.0038611324075609444,0.0027606991682783697
1782943325928163800,4.292163818359375,-0.10200491496920586,-0.0006474858569912612,0.008411005131108686
1782943325938148900,4.30214892578125,-0.0972141735613346,-0.003755571407545358,0.0009145484284963458
1782943325948133600,4.312133544921875,-0.1091875199496746,-0.00022617343869060276,-0.003136839004291687
1782943325958118700,4.32211865234375,-0.09781623110771179,-0.0033289069606922566,0.0026928535298793577
1782943325968103700,4.332103759765625,-0.10081424387991428,0.004956362032052129,0.0049938444982282814
1782943325978088700,4.342088623046875,-0.09452888000011443,0.004362158998567611,-0.00038135258395923297
1782943325988073700,4.35207373046875,-0.08749182097017764,0.00015692586107179523,0.0032051823996123857
1782943325998058800,4.362058837890625,-0.10125964955985546,0.008434102878905832,-0.002385223769256845
1782943326008042800,4.372042724609375,-0.1090390513896942,0.00504480750048533,0.006573482939065433
1782943326018027800,4.38202783203125,-0.09168284291923046,-0.006095796124450862,0.0018286767318844795
1782943326028012800,4.3920126953125,-0.10111118099987507,-0.00512108760708943,-0.0002985810877755284
1782943326037997800,4.401997802734375,-0.09931611427664756,-0.0024289259136654434,0.0024403811727301216
1782943326047982600,4.411982666015625,-0.10081015222668648,0.0009073058369569479,0.0015435008316650055
1782943326057967600,4.421967529296875,-0.09527297636568546,-0.004790156885981559,-0.003194327645457815
1782943326067952600,4.43195263671875,-0.0955716670513153,-0.007645838578045368,-0.0036414366587181573
1782943326077938000,4.44193798828125,-0.09661796123385429,-0.004258534227311611,-0.0016818064739461988
1782943326087922700,4.451922607421875,-0.10050912345349788,0.0026458018010482192,0.005943813583266455
1782943326097907000,4.461906982421875,-0.08988543810844421,-0.0009157814043574034,-0.001816136910719797
1782943326107891700,4.4718916015625,-0.09377367771863937,0.0033422961652278898,-0.0009189506089780479
1782943326117876700,4.481876708984375,-0.0999070659071207,0.005527476450894028,0.006436218476400244
1782943326127861800,4.49186181640625,-0.1066390045106411,0.0029101883582770822,0.006290295783244073
1782943326137846800,4.5018466796875,-0.09706219787001609,-0.003215400116238743,0.004670444063027389
1782943326147831600,4.51183154296875,-0.0997545056939125,0.001343852357007563,-0.0006991475455695763
1782943326157816600,4.521816650390625,-0.09840659821629523,-0.007534450625441968,-0.005174096435960382
1782943326167801600,4.531801513671875,-0.10169921002089977,-0.000030212475173175335,-0.004353900343587156
1782943326177787000,4.541786865234375,-0.0855418559461832,0.007623590213619172,-0.0016739177117240614
1782943326187771000,4.55177099609375,-0.1073924532264471,0.006583981500193476,0.001867515471507795
1782943326197756000,4.561755859375,-0.0870446617245674,-0.002428268326539546,0.0043180024797213265
1782943326207740700,4.57174072265625,-0.09213643190562724,-0.0064527563359588385,0.0032140164433280003
1782943326217725700,4.5817255859375,-0.0918377412199974,-0.006266659179329872,0.007042568605404812
1782943326227710700,4.591710693359375,-0.0978244144141674,0.00340001770183444,0.0027925852940184994
1782943326237695700,4.60169580078125,-0.09902385333180427,0.005431450464203953,0.004110593107005116
1782943326247680800,4.6116806640625,-0.0970750573515892,-0.003691730657406151,0.010331129855976905
1782943326257665500,4.62166552734375,-0.10739888296723366,0.0004360350633971393,-0.0000035824798629619177
1782943326267650800,4.63165087890625,-0.0982686510503292,0.0015543533025309442,0.00017416697352891787
1782943326277634600,4.641634521484375,-0.10440203923881053,0.0076115344496443865,0.002055078499438241
1782943326287619800,4.651619873046875,-0.09931377618908882,-0.002569941819552332,-0.00499697717023082
1782943326297604900,4.66160498046875,-0.10679507185518741,-0.004238715281989425,-0.0024354355695541015
1782943326307590000,4.67158984375,-0.10529460416436194,0.003223199830204248,0.0004760816627065651
1782943326317574700,4.68157470703125,-0.10020283398330211,-0.002777227894682437,0.005295062784373294
1782943326327559700,4.6915595703125,-0.10349544578790663,-0.0076872848332859576,0.0038767455352237447
1782943326337544700,4.701544677734375,-0.11307459051609038,-0.0005388378507457674,-0.003178349191613961
1782943326347529700,4.71152978515625,-0.10439385593235492,-0.003624200112838298,0.0049013050932786425
1782943326357514500,4.721514404296875,-0.10469196209609508,-0.0027560024435631927,0.012031988090265075
1782943326367498800,4.731498779296875,-0.10828326458632945,0.00623215412152931,0.005838964969303924
1782943326377483500,4.7414833984375,-0.10394552764296532,-0.006407328025344759,0.0176865158537752
1782943326387468800,4.75146875,-0.09796177705824374,-0.011851418775413184,0.007593658582947682
1782943326397453800,4.761453857421875,-0.0984124434351921,-0.00026926366174593566,-0.004696393638325389
1782943326407438800,4.77143896484375,-0.09856617269217967,0.0037743674395605917,-0.006300451851077377
1782943326417423600,4.781423583984375,-0.09857026434540749,0.0038038309960626063,-0.002322853456996381
1782943326427408600,4.79140869140625,-0.10560089363455771,-0.006752579532749951,0.00934583829580806
1782943326437393700,4.8013935546875,-0.09826631296277046,-0.001001413861196488,0.0059937993379891846
1782943326447378700,4.811378662109375,-0.10200433044731616,0.000837345873285085,-0.016812498081778177
1782943326457362700,4.82136279296875,-0.09048106591403483,0.008713504342176019,-0.011577207227202598
1782943326467347700,4.83134765625,-0.10185060119032859,0.0028986257846467197,0.004811928043083753
1782943326477332700,4.841332763671875,-0.11052782864272594,-0.0015356120694428681,0.002972072330059018
1782943326487317800,4.85131787109375,-0.1016974564552307,0.0021679368899203836,-0.001592758217314258
1782943326497302800,4.861302734375,-0.10124971268773078,-0.0021289017874747515,-0.005758999634848442
1782943326507287800,4.871287841796875,-0.10543839654922485,-0.0026323577975854275,-0.006835946967266499
1782943326517272800,4.88127294921875,-0.10259586659967898,-0.0018332798417657612,0.0035809751757537012
1782943326527257600,4.891257568359375,-0.10005027377009391,-0.003567081364430487,-0.0019777572132181377
1782943326537242600,4.90124267578125,-0.10618424648046493,0.0037100152327679096,0.00009528620117343961
1782943326547226600,4.9112265625,-0.09705693717300891,-0.00016401318898424505,-0.005884210616827476
1782943326557211600,4.921211669921875,-0.10034545732438564,-0.0037598457238636907,0.0008742232679738662
1782943326567196700,4.93119677734375,-0.09989888260066508,-0.00006806026753038167,0.003193880120886024
1782943326577181700,4.941181640625,-0.09915361719131469,-0.006985493239481002,0.0023595162225537934
1782943326587166700,4.951166748046875,-0.09451777408421039,-0.009732125066500157,0.01044604548951611
1782943326597151700,4.96115185546875,-0.09885843363702297,-0.005491802349314093,0.00831539470294956
1782943326607136800,4.97113671875,-0.10634089834690093,-0.004416245539672672,0.0006425493869697675
1782943326617121800,4.981121826171875,-0.10394435859918594,-0.003468826888035983,-0.0036885568862082435
1782943326627106600,4.9911064453125,-0.08912731321752071,-0.004937511201109737,-0.006368845478747971
1782943326637090600,5.001090576171875,-0.0918202055633068,0.005039218009915202,0.0026793478776235133
1782943326647075600,5.01107568359375,-0.10409282715916633,-0.001575414356868714,0.005168157602229621
1782943326657060600,5.021060546875,-0.10738543896377085,0.005340739973448217,0.0006978118217200971
1782943326667046000,5.0310458984375,-0.10125088173151016,-0.0031665377395227547,-0.0009091416010167449
1782943326677031000,5.041031005859375,-0.10334580818414688,-0.0010546784183941781,0.005327994656306691
1782943326687015700,5.051015625,-0.0915244374871254,-0.003904113032761961,0.004325690312543884
1782943326697000700,5.061000732421875,-0.09960428356826305,-0.007526212520059198,-0.0061977426785626444
1782943326706985700,5.07098583984375,-0.10110124412775039,-0.0008930581158958375,0.009007452637318055
1782943326716970800,5.080970703125,-0.10453998640477656,-0.005952734391950071,0.007549027140066027
1782943326726954800,5.090954833984375,-0.10274258159399031,-0.0012261625277809798,-0.002717010723601561
1782943326736939800,5.100939697265625,-0.09361234967708587,0.002413363018352538,0.005785574831231497
1782943326746924500,5.110924560546875,-0.10169102671444416,-0.002139295317325741,0.003999511115078349
1782943326756909600,5.12090966796875,-0.09585749825537204,0.00169535094210878,0.0006197872826014645
1782943326766894800,5.130894775390625,-0.10588555579483508,-0.0004401084503158927,-0.002004670336318668
1782943326776879900,5.1408798828125,-0.10364332982599735,-0.005754965063836426,0.002864830829610582
1782943326786864600,5.15086474609375,-0.0975105261594057,-0.011813863244000822,0.0039939376075286415
1782943326796849700,5.160849609375,-0.09436989004611969,-0.004995634596515447,0.006012718667590525
1782943326806834700,5.170834716796875,-0.10723930849134922,-0.0034756950202398,0.0013887212619069032
1782943326816818700,5.180818603515625,-0.09945464596450328,0.003122278472688049,0.001874684997810982
1782943326826803700,5.1908037109375,-0.09765724115371703,-0.001893266400694847,-0.004400529664021451
1782943326836788700,5.200788818359375,-0.10319383249282836,0.0048428551875986155,0.0023629502886557017
1782943326846773500,5.2107734375,-0.0981079075306654,0.0013356507842428981,0.00039139677064958957
1782943326856758800,5.2207587890625,-0.10439210236668586,0.00491336314054206,-0.0011290953614749013
1782943326866743800,5.230743896484375,-0.10394786573052406,0.0010623502681963144,0.00032627281229943037
1782943326876728800,5.240728759765625,-0.10155366407036781,0.004193707096483558,-0.010941825083247385
1782943326886713900,5.2507138671875,-0.10095686722099781,0.004866272595804184,0.0025269315115991047
1782943326896698600,5.26069873046875,-0.09886077172458171,0.0021275135479867455,0.01008567404479254
1782943326906682600,5.2706826171875,-0.1014016883790493,0.00033127778097987175,-0.002530141815415118
1782943326916667600,5.280667724609375,-0.10244915160536766,-0.0038585751242935654,-0.0029867515926714984
1782943326926652700,5.290652587890625,-0.09855974295139312,0.004724233776610344,0.0029552285098237915
1782943326936637700,5.3006376953125,-0.09930734644830226,-0.000665934829134494,-0.004163613352319225
1782943326946622700,5.310622802734375,-0.10365034408867359,-0.0009865450856275857,-0.0001916432647150941
1782943326956607700,5.320607666015625,-0.09661562314629554,0.0008936791704036294,-0.007769298277643975
1782943326966592800,5.3305927734375,-0.09990589686334132,-0.0033681247262284156,-0.0013285474733100273
1782943326976577800,5.340577880859375,-0.09765782567560673,-0.003683054160606116,-0.0015925253218738362
1782943326986562800,5.350562744140625,-0.10259762016534804,0.004021674997825175,0.0012245802087592892
1782943326996546800,5.360546875,-0.11037819103896618,0.004594963107444346,0.004899697658082004
1782943327006531800,5.37053173828125,-0.10169979454278945,-0.0073596785804256794,0.004219339294661767
1782943327016516600,5.3805166015625,-0.09780629423558712,-0.007162859100382775,-0.0039978808469953945
1782943327026501600,5.390501708984375,-0.09720891286432742,0.0015478870291262864,-0.004042286244302522
1782943327036486700,5.400486572265625,-0.09302022900283335,0.002341064967121929,-0.0001856541986344382
1782943327046472000,5.410471923828125,-0.10753273847997188,-0.0034539946450851855,0.005703545403853059
1782943327056456700,5.420456787109375,-0.09002689240574836,-0.007849891516473143,0.004294338476343546
1782943327066441700,5.430441650390625,-0.09586158990859985,-0.004294226595200598,0.00988904864428332
1782943327076426800,5.4404267578125,-0.10035071802139281,-0.004424428846128285,0.007453391595731954
1782943327086410800,5.45041064453125,-0.09840601369440555,-0.0014053550195880233,0.008923690193868242
1782943327096395800,5.460395751953125,-0.11202478920221329,-0.0034458844038657843,-0.001998000850225799
1782943327106380800,5.470380859375,-0.10843465575575828,-0.0010080993303097784,-0.0045380178889725354
1782943327116365600,5.480365478515625,-0.10379589003920554,-0.003407159828674048,-0.00125070331399329
1782943327126350600,5.4903505859375,-0.09392097723484039,0.0030925591878592966,0.0011469940610579214
1782943327136335600,5.500335693359375,-0.10424421832859515,-0.003711768798436969,0.004676538160385098
1782943327146321000,5.51032080078125,-0.10364391434788703,-0.0009311251039616763,-0.00005748179130023345
1782943327156305700,5.5203056640625,-0.09765782567560673,-0.006057564739603549,0.009193990468652918
1782943327166290700,5.530290771484375,-0.1024468135178089,0.00039367549270391463,0.0038874427424627355
1782943327176274700,5.540274658203125,-0.10633856025934219,0.004785754705499857,-0.005173774492263328
1782943327186259700,5.550259765625,-0.11172259138524532,0.007521371948160231,0.006845698893012013
1782943327196244700,5.56024462890625,-0.10079553917944431,0.004522738121449947,0.0005206035077339038
1782943327206229800,5.570229736328125,-0.0925654709726572,-0.0062510962840169665,0.003601205113029573
1782943327216214800,5.58021484375,-0.10318974083960056,-0.0002370418925769627,0.003548920086654834
1782943327226199600,5.590199462890625,-0.11575929955542087,0.0030555881783366204,-0.00573077590407338
1782943327236184800,5.600184814453125,-0.10214110856950283,-0.003437189640756696,0.0010457439099787733
1782943327246169900,5.610169921875,-0.10453180309832096,-0.0028282822284847495,-0.0005293074039975181
1782943327256155000,5.62015478515625,-0.11530512604713439,-0.0008948116815648972,0.0007020861380384303
1782943327266139000,5.630138916015625,-0.09958967052102088,-0.010929700820613652,0.007912579205853398
1782943327276123600,5.64012353515625,-0.09435060082376003,-0.0012727416158653795,0.00024509048500331117
1782943327286108700,5.650108642578125,-0.10273322924375533,0.0010879231008701026,-0.006409825943107716
1782943327296093700,5.66009375,-0.09525134905576706,-0.00595719137135893,0.0015098040580400266
1782943327306078700,5.67007861328125,-0.09674655604958533,-0.0027020437666215,0.006063620021054521
1782943327316063700,5.680063720703125,-0.0958504839926958,0.0034830015438608824,0.004168004116357769
1782943327326048500,5.690048583984375,-0.09555003974139689,0.0020775551927275956,0.0006743236315669491
1782943327336033800,5.70003369140625,-0.0998854385972023,0.0005734890390187502,0.008340501744742504
1782943327346018800,5.710018798828125,-0.09539514144062995,-0.004273384736571461,0.0036764075073995625
1782943327356002800,5.7200029296875,-0.09404372683167457,-0.00265897180987522,0.002559934165480081
1782943327365987800,5.72998779296875,-0.09883271467387676,-0.00026206673597916957,-0.0003251973833539523
1782943327375972900,5.739972900390625,-0.09030512482523918,-0.0011054222249425947,0.0034468822009977884
1782943327385957600,5.74995751953125,-0.10496902547180652,0.0003846702023409307,-0.005556974256725516
1782943327395942700,5.759942626953125,-0.10885960316956042,0.00022409107945859432,-0.005580578894598875
1782943327405927700,5.769927734375,-0.10781272446513175,-0.001120619794074446,0.005696695537958294
1782943327415912700,5.77991259765625,-0.0924000512778759,-0.000801269912905991,0.0022046110719209536
1782943327425897700,5.789897705078125,-0.10676643028259276,-0.006875000336021185,-0.0040300592336803675
1782943327435882800,5.7998828125,-0.09778408240377902,-0.004203717033844441,0.004820542891090736
1782943327445867800,5.80986767578125,-0.10391863963603973,-0.0033402503386139866,-0.0008466982235200703
1782943327455851800,5.819851806640625,-0.10571545992493629,-0.011216518405359237,-0.004435781357204541
1782943327465836800,5.8298369140625,-0.10122691633403301,-0.0048734877878800036,0.002443468178960029
1782943327475821800,5.83982177734375,-0.10586568205058575,-0.0057893787900917225,-0.0011973679748480208
1782943327485806600,5.849806640625,-0.09688684130311012,-0.0058070423109456894,0.0013519466152065432
1782943327495795700,5.859795654296875,-0.09419336443543433,-0.004931556384358555,-0.0021363749911659396
1782943327505780700,5.86978076171875,-0.09194529324769973,-0.00641658904403448,-0.001752120347355958
1782943327515765800,5.879765869140625,-0.10107084898948669,-0.007538524012360721,-0.0003207381206564605
1782943327525750800,5.889750732421875,-0.1049614266872406,-0.0055744391314685345,-0.0023058726394432597
1782943327535735800,5.89973583984375,-0.0935889688014984,0.0028125914690084754,0.001477623388066422
1782943327545719800,5.9097197265625,-0.09912672918438911,0.007505078400485217,-0.001088402591482736
1782943327555704800,5.919704833984375,-0.1013753848940134,-0.0054675446908921,-0.0014193447290337645
1782943327565689900,5.92968994140625,-0.0988309611082077,-0.0005544190123677253,-0.004718429656908847
1782943327575675000,5.9396748046875,-0.09957681103944778,-0.001391600488871336,-0.001964141963107977
1782943327585659600,5.94965966796875,-0.10002747741639613,-0.0034147768795490265,0.004922585343325045
1782943327595644700,5.959644775390625,-0.11364566840231417,-0.004549662660993635,0.006024566652299836
1782943327605629700,5.969629638671875,-0.09374328258037566,-0.006811890238244086,0.00223833296172088
1782943327615614700,5.97961474609375,-0.10002923098206519,-0.0033312998471781608,0.0002936765837948769
1782943327625599700,5.989599853515625,-0.09778758953511714,0.00351653848728165,0.0017434621168649755
1782943327635584000,5.999583984375,-0.09449263964295387,-0.0003280811768956482,0.00010718441823264583
1782943327645568800,6.00956884765625,-0.09838380186259746,-0.00525543631017208,0.007443562038172967
1782943327655553800,6.0195537109375,-0.09883563728332519,0.0005432217649184167,0.013873727516410871
1782943327665538800,6.029538818359375,-0.1057195515781641,0.0018816307618282734,0.008189756745996419
1782943327675523800,6.03952392578125,-0.09165420134663581,-0.00017097265273332594,-0.003262828587694093
1782943327685508600,6.049508544921875,-0.095846392339468,-0.0009562047462910413,0.00021195311709307132
1782943327695493600,6.05949365234375,-0.09270341813862323,-0.0012658917499706148,0.00706996578569524
1782943327705478700,6.069478759765625,-0.10257891546487807,0.0027464126313105222,0.00408828766036313
1782943327715464000,6.0794638671875,-0.10512041664123535,-0.0069344754382967945,0.0026194549335283226
1782943327725447700,6.08944775390625,-0.0964390975356102,-0.0004524199426174164,0.0013564104444812983
1782943327735433000,6.099432861328125,-0.09539046526551247,0.009072930505406111,-0.00021473416264634578
1782943327745417700,6.109417724609375,-0.09823767139017581,-0.0031654600272886455,0.003566145216091536
1782943327755402800,6.11940283203125,-0.097039986038208,-0.001864022039901465,-0.0019387654932565054
1782943327765387800,6.1293876953125,-0.09868658420145511,-0.002155607131309807,-0.00016297429265687242
1782943327775372800,6.139372802734375,-0.09539280335307121,0.0032909313041716813,0.011354084262123797
1782943327785357800,6.14935791015625,-0.10287468354105948,0.0014788403809070586,-0.001458062454359606
1782943327795342600,6.159342529296875,-0.1028740990191698,-0.0048263607105240225,-0.0007781424823566339
1782943327805327600,6.16932763671875,-0.09015782530903815,-0.002184413100685924,0.0082329588501947
1782943327815313000,6.17931298828125,-0.08806114529073238,0.003863689690828323,0.0057078379864804445
1782943327825297000,6.189296875,-0.09823767139017581,0.0024075177994556723,-0.0045514025269309056
1782943327835282000,6.199281982421875,-0.10946282975971698,0.004599383554235101,-0.0012241692168056032
1782943327845267000,6.209266845703125,-0.1067687683701515,-0.0007910225135274231,0.0035840005331905555
1782943327855251700,6.219251708984375,-0.1039285765081644,-0.0027785613352432847,0.004386747733841184
1782943327865236700,6.22923681640625,-0.10781798516213893,-0.0017860979654826222,-0.0010384442362235857
1782943327875221800,6.2392216796875,-0.10796645372211933,0.000405073669552803,0.004720678696210961
1782943327885206800,6.249206787109375,-0.09285422478616237,0.0007657419417984783,0.0032210124396951866
1782943327895191600,6.259191650390625,-0.09465046055316924,-0.0005636800310574472,0.012586258688871747
1782943327905176800,6.2691767578125,-0.10258066903054713,-0.005396580080222338,0.006919378333864733
1782943327915160600,6.27916064453125,-0.10003624524474143,-0.0009113974901847541,-0.004652122955047525
1782943327925145900,6.289145751953125,-0.10452361979186535,-0.0009743614574894309,-0.008287858242052608
1782943327935131000,6.299130859375,-0.1003337668865919,0.0018621771426871418,0.00763849552180618
1782943327945116000,6.309115966796875,-0.10317454327046871,0.00024445801405236124,-0.001975636038079392
1782943327955100700,6.3191005859375,-0.11335165389180182,0.010371336285490543,-0.005340908936806954
1782943327965085700,6.329085693359375,-0.10617080247700214,-0.004066774514876306,0.00529761550106341
1782943327975070700,6.33907080078125,-0.08926116873025894,-0.00349452758487314,0.0006329824076034129
1782943327985055700,6.3490556640625,-0.09075403763651847,-0.0075421224752441045,0.007871379545785021
1782943327995040800,6.359040771484375,-0.09419687156677245,-0.0007675868390128016,0.0010862563001690431
1782943328005024800,6.369024658203125,-0.10512100116312503,-0.0031228812608867884,-0.010204215540678706
1782943328015009800,6.379009765625,-0.1127513499110937,-0.008401424452010541,-0.0027570710226427764
1782943328024994800,6.388994873046875,-0.09644085110127926,-0.00243126400122419,0.003552792544174008
1782943328034979800,6.398979736328125,-0.1081155068039894,-0.002590564482472837,0.006067257299844641
1782943328044964900,6.40896484375,-0.09943711030781269,0.0010174516805447637,0.004127669822680763
1782943328054950000,6.418949951171875,-0.09599778350889682,0.0014296674769371748,-0.006848879514075815
1782943328064934700,6.4289345703125,-0.09644669632017612,0.004270717855449766,-0.003653277793561574
1782943328074919700,6.438919677734375,-0.10842179627418518,0.000425933794490993,-0.006881754303793422
1782943328084904700,6.44890478515625,-0.09630290393531322,-0.004733622659463435,0.0001608645339612849
1782943328094890000,6.458889892578125,-0.09810030874609947,0.006253562235739082,0.0015146674628253095
1782943328104873700,6.468873779296875,-0.09540683187842368,0.006113258715905249,-0.0014381133615854196
1782943328114858800,6.478858642578125,-0.09630758011043071,0.0045835466642864045,0.0009127560469205491
1782943328124843800,6.48884375,-0.10094576130509376,-0.005756207172852009,0.00363107509490801
1782943328134828800,6.498828857421875,-0.0934632965952158,-0.0065590662546455855,0.0038416171396267597
1782943328144813800,6.508813720703125,-0.1031920789271593,-0.0025629458231851455,0.005141454541683197
1782943328154798800,6.518798828125,-0.10274316611588001,-0.001972797910310328,-0.0030472678745631127
1782943328164783600,6.52878369140625,-0.10917699855566024,-0.0026085202642716467,0.006058281692233868
1782943328174768600,6.5387685546875,-0.09586158990859985,0.004371529615111649,-0.0063805404831189655
1782943328184753700,6.548753662109375,-0.09929974766373634,0.0076786448691040276,-0.010549519563722423
1782943328194737700,6.558737548828125,-0.10229308426082134,0.0035083186482079325,0.0025963434859993867
1782943328204723000,6.568722900390625,-0.09361234967708587,0.0007549465531483292,0.0010401841021608562
1782943328214708000,6.5787080078125,-0.09376198728084564,-0.0012043342884629964,0.003656446998182218
1782943328224692700,6.588692626953125,-0.0943605376958847,-0.0028607597259804607,0.006299307923472951
1782943328234677800,6.598677734375,-0.09944821622371673,-0.0036186471548862753,0.0016283661035238763
1782943328244662800,6.608662841796875,-0.09375789562761783,-0.0055775992029346525,-0.0026689931636792604
1782943328254647800,6.618647705078125,-0.10393442172706127,0.002557283267378807,0.006026121571857948
1782943328264632600,6.628632568359375,-0.10259060590267181,-0.004205105273332447,0.0032405368407838974
1782943328274617600,6.63861767578125,-0.1018412488400936,-0.0018494089926593005,0.00426533386085648
1782943328284601600,6.6486015625,-0.10558569606542587,-0.006498604771681129,0.0016623711211141198
1782943328294586600,6.658586669921875,-0.10214636926651001,-0.0026718860903754828,0.0010409923863364382
1782943328304572000,6.668572021484375,-0.09780921684503555,-0.00018613368924707174,0.009236450504045934
1782943328314557000,6.678556884765625,-0.10738953061699867,-0.004989880709163844,0.010181058427377137
1782943328324541700,6.688541748046875,-0.09796294610202312,0.005800886564794928,0.0025030254796263762
1782943328334526700,6.698526611328125,-0.09841653508841991,0.0036090938752517104,0.0048389484807499685
1782943328344511700,6.70851171875,-0.09721943425834179,-0.001622285705897957,0.005363278315530624
1782943328354496800,6.718496826171875,-0.1136836623251438,-0.00892150280335918,0.009086872265790589
1782943328364481800,6.728481689453125,-0.1006651907980442,0.002149341787304729,-0.004991102268581744
1782943328374466600,6.738466552734375,-0.09752163207530974,0.00013252207217738033,-0.0008256052031414583
1782943328384450600,6.748450439453125,-0.1072445691883564,-0.005381893967743963,-0.0012260826126788743
1782943328394435800,6.758435791015625,-0.10275485655367374,0.0019012305114418267,-0.005068551418965217
1782943328404420900,6.7684208984375,-0.10155775572359561,0.0027976861608214674,0.00048239038919564335
1782943328414406000,6.778406005859375,-0.10425473972260951,-0.006168843094352633,0.009433313366572839
1782943328424391000,6.788390869140625,-0.10335632957816124,-0.0028969452842138705,0.00036531248132232576
1782943328434375700,6.798375732421875,-0.09871464125216006,-0.001076031733676791,0.003347819440427702
1782943328444360700,6.808360595703125,-0.10514788917005062,-0.004714771828521043,0.0011516611030208878
1782943328454345700,6.818345703125,-0.10335048435926437,-0.006590922697633505,0.00848007689550286
1782943328464330800,6.828330810546875,-0.09796528418958186,0.004274480715114623,0.004629771842632908
1782943328474314800,6.838314697265625,-0.10035948584973811,-0.005309066193550825,0.006184312374831642
1782943328484299800,6.8482998046875,-0.10305004010796547,-0.003765526545979082,-0.000982761676365044
1782943328494285000,6.85828515625,-0.09856208103895187,-0.005396616612840443,-0.00038787593957968053
1782943328504270300,6.868270263671875,-0.09601765725314616,-0.003189005299657583,-0.0051088080808287485
1782943328514255400,6.87825537109375,-0.08090718188285827,0.00006172185828909278,-0.004745055085641797
1782943328524240100,6.888240234375,-0.10514905821382999,0.00502279659807682,0.0017999141449923626
1782943328534225200,6.89822509765625,-0.10395254190564154,-0.002862878617830574,0.00527331902673468
1782943328544210200,6.908210205078125,-0.1033534069687128,-0.0037878662419505416,-0.004230066184652969
1782943328554195200,6.9181953125,-0.09587386486828327,-0.0020721483652479944,0.0008492737730965017
1782943328564180200,6.92818017578125,-0.09991408016979694,-0.004021492334734649,0.002835620718146674
1782943328574164200,6.938164306640625,-0.11188742655813694,-0.0027272147404961288,0.003330772407504264
1782943328584149200,6.948149169921875,-0.10156593903005122,0.002650642372947186,-0.0019065665569738483
1782943328594134300,6.95813427734375,-0.09857260243296623,0.0014282609711401164,0.000731426396954339
1782943328604119300,6.968119384765625,-0.10321312171518802,-0.0010149857288226484,0.009183535290008876
1782943328614104300,6.978104248046875,-0.10141513238251208,0.005179265801422298,0.0020375862252316438
1782943328624089300,6.98808935546875,-0.10396014069020748,-0.0009112696260213852,-0.0028147217773017473
1782943328634074000,6.99807421875,-0.10635551139414309,-0.0038613150706514714,-0.0030523938575410282
1782943328644059100,7.00805908203125,-0.1088999351799488,0.0005165164210833608,-0.002136799682851415
1782943328654044200,7.018044189453125,-0.10665537112355232,-0.004288070849049836,-0.0045215439614956264
1782943328664028200,7.028028076171875,-0.10351531953215598,-0.0005967237841337919,0.0019056578080984762
1782943328674013200,7.03801318359375,-0.09962532635629176,0.0012523016160354017,0.003580726297292858
1782943328683998200,7.047998291015625,-0.10306757576465606,0.0023212094891816378,0.007970095246483106
1782943328693983200,7.057983154296875,-0.10321721336841583,-0.002315346003975719,-0.0008144810209283604
1782943328703968300,7.06796826171875,-0.09483692303597926,-0.009035630702320486,-0.0030087487953482195
1782943328713953300,7.077953369140625,-0.09663140523731709,-0.0042909021269530055,0.0025358820030349305
1782943328723938300,7.087938232421875,-0.0909445917725563,0.00404668157491833,-0.001103536228532903
1782943328733923000,7.097923095703125,-0.08900047196745872,0.013813275166600941,-0.010365870092506519
1782943328743908000,7.107908203125,-0.096482352155447,-0.0009837503403425216,0.0011240310272900387
1782943328753893000,7.11789306640625,-0.09124445150196552,-0.002362911472748965,0.006076082210405729
1782943328763877000,7.127877197265625,-0.09947510423064232,0.0033622795073315497,0.003540309805225115
1782943328773862100,7.137862060546875,-0.10171908376514911,0.004676887503545731,-0.010798818149673753
1782943328783847400,7.147847412109375,-0.10142156212329864,0.006552892242185771,-0.00037810346423648294
1782943328793832200,7.157832275390625,-0.09842705648243427,0.005005900262203067,0.0038550428767804984
1782943328803817200,7.167817138671875,-0.10411386994719504,0.000813069948554039,-0.0023454945470672097
1782943328813802200,7.17780224609375,-0.10919745682179927,0.0011113770416937769,0.01314002696397947
1782943328823787300,7.187787353515625,-0.1015671080738306,0.0021845226985402403,0.005068928161589429
1782943328833772300,7.197772216796875,-0.10007190108001232,0.003262618525139987,-0.0016326723858830518
1782943328843757000,7.207757080078125,-0.10919979490935802,0.002967617633938789,0.0004046900770626962
1782943328853741000,7.217740966796875,-0.09602817864716053,-0.0078080616687424475,0.014239019448135513
1782943328863726000,7.22772607421875,-0.0982686510503292,-0.005884126135148108,0.007781333492021076
1782943328873711000,7.237711181640625,-0.08974106120169162,-0.00461969568990171,0.00039711869196034966
1782943328883696400,7.2476962890625,-0.10066285271048546,-0.0006539155977778136,0.014453545831516383
1782943328893681400,7.257681396484375,-0.08898878152966498,-0.0039170638458803295,0.006215355967066716
1782943328903666200,7.267666259765625,-0.08644552678763866,0.0016466894947923718,0.0031825276098097675
1782943328913651200,7.277651123046875,-0.09722411043345927,-0.0065535315630026155,0.009305736897571477
1782943328923636200,7.28763623046875,-0.0967740285784006,0.0027030666799284517,0.003853974297700915
1782943328933621200,7.297621337890625,-0.10305822341442107,0.003581603080127388,-0.0041713057517190465
1782943328943606000,7.30760595703125,-0.09632394672334194,-0.0090144600501284,0.004126626359776128
1782943328953590300,7.31759033203125,-0.09797054488658904,0.0002996953326277435,-0.00006684099140111356
1782943328963575000,7.327574951171875,-0.09333177917003631,-0.003036536417994648,0.006423142082407139
1782943328973560300,7.337560302734375,-0.1041074402064085,0.0031803470691666004,0.00586209011656465
1782943328983545300,7.34754541015625,-0.09797112940847873,-0.0007631115932948887,0.006037590530654415
1782943328993530400,7.3575302734375,-0.09916589215099811,-0.007751472643297165,0.002157892703230027
1782943329003515100,7.36751513671875,-0.1045510923206806,-0.005407211072091013,0.0032291066978941668
1782943329013500200,7.377500244140625,-0.08839081563651562,-0.00043815395524725314,0.001667387506237719
1782943329023485200,7.387485107421875,-0.10874211426973342,0.0007953333624638616,0.00211952660435345
1782943329033470200,7.39747021484375,-0.10709551610648631,0.00046213761903345584,-0.008104042090766598
1782943329043454200,7.4074541015625,-0.1000637177735567,-0.004588606431894004,0.004444877979112789
1782943329053439200,7.417439208984375,-0.10993863057792186,-0.004483008899260312,0.004337147854897193
1782943329063424000,7.427424072265625,-0.10784487316906452,0.011281546465586871,0.007263513313129078
1782943329073409300,7.4374091796875,-0.09961772757172584,-0.005624068693164736,-0.005508879064989741
1782943329083394300,7.447394287109375,-0.09932195949554443,-0.003978913568332791,-0.005348441506002563
1782943329093379300,7.45737939453125,-0.09633271455168724,0.0025889753135852514,0.006321284576551988
1782943329103364400,7.4673642578125,-0.09797872819304465,0.003203782743681222,-0.0011432586008566432
1782943329113349000,7.47734912109375,-0.10351356596648692,-0.0035860783258453008,-0.0008252398769604042
1782943329123334100,7.487334228515625,-0.09797639010548591,0.003695274321362376,0.00038983728451421484
1782943329133319200,7.497319091796875,-0.10007014751434326,-0.002326780713442713,-0.001113792761065997
1782943329143304200,7.50730419921875,-0.10411094733774662,0.0038143889226950702,-0.0038555908660520798
1782943329153288200,7.5172880859375,-0.10021803155243396,0.009563819294888526,0.004839663150091655
1782943329163273200,7.527273193359375,-0.10186521423757075,0.00047813890576362607,0.004077622419164982
1782943329173258200,7.53725830078125,-0.10650690256357193,-0.005839428476896137,-0.0040857577765593305
1782943329183243300,7.5472431640625,-0.09244096781015396,-0.0010536555050872265,-0.0002535683356923982
1782943329193228300,7.557228271484375,-0.0936368995964527,0.0029619368118233977,0.0016791921084630301
1782943329203213300,7.56721337890625,-0.10231471157073974,-0.0035041539297439154,0.0036193937902688047
1782943329213198000,7.577197998046875,-0.0999199253886938,-0.01415344864008948,0.00034389523395802823
1782943329223183000,7.58718310546875,-0.09513035302460193,-0.004167695872392505,0.007609223761549219
1782943329233168100,7.597168212890625,-0.09108721511363983,0.0009515285711735487,0.004943470584438182
1782943329243152100,7.607152099609375,-0.109492640376091,0.003363265888020396,0.003013308522745501
1782943329253137200,7.61713720703125,-0.09931611427664756,-0.005209843602776527,-0.004541002147214021
1782943329263122400,7.627122314453125,-0.09333061012625694,0.0007733041937462985,0.0027959554280387235
1782943329273107200,7.637107177734375,-0.10455401493012904,-0.006969601550605148,0.004211797592311632
1782943329283092200,7.64709228515625,-0.1024555813461542,0.0009597849428653717,-0.0054532535873469895
1782943329293077200,7.6570771484375,-0.10260697251558304,0.0034305407042615112,-0.0014764680440188384
1782943329303062300,7.667062255859375,-0.1008136593580246,0.007284896311163902,-0.0025978527397848665
1782943329313047300,7.67704736328125,-0.09766951611340045,0.0016919716749340295,0.00025992044466547666
1782943329323032000,7.687031982421875,-0.10140928716361522,0.0014868410242721438,-0.00018421572679653764
1782943329333017000,7.69701708984375,-0.10290449415743351,-0.002141395942866802,-0.0061499191981740295
1782943329343001000,7.7070009765625,-0.10305179367363453,0.006740194975212216,0.005329805304191541
1782943329352986400,7.716986328125,-0.09347498703300952,0.00015586641514673828,0.007004038109746761
1782943329362971400,7.726971435546875,-0.11128244640231132,0.00033792671747505664,-0.005495878019521478
1782943329372956200,7.7369560546875,-0.09886486337780952,0.0004336056442931294,0.003665787931974046
1782943329382941200,7.746941162109375,-0.10305588532686233,-0.003722089263051748,0.0065920141095994035
1782943329392926200,7.75692626953125,-0.11577683521211146,0.006383472225721925,0.0037087411577114834
1782943329402911200,7.7669111328125,-0.09737257899343967,-0.0010473901610821485,0.0036591686782310715
1782943329412896300,7.776896240234375,-0.0955763432264328,-0.0024062208915129305,-0.003928761133539956
1782943329422881000,7.786881103515625,-0.09512801493704319,0.0011873831536620854,0.009358642978454007
1782943329432866300,7.7968662109375,-0.10111293456554413,-0.004659552776254713,0.004719466269947588
1782943329442850000,7.80685009765625,-0.10186287615001201,-0.0021842852365225552,0.004124301971949171
1782943329452835300,7.81683544921875,-0.113679570671916,-0.0029625943989492953,0.004867475888913031
1782943329462820400,7.8268203125,-0.11053484290540218,-0.0036559652242809534,0.006217196297703776
1782943329472805400,7.836805419921875,-0.10125497338473796,-0.0001546060398221016,0.008419576596631667
1782943329482790100,7.8467900390625,-0.09751578685641288,-0.0014785481199622154,-0.00034666486306814473
1782943329492771300,7.856771240234375,-0.09497603924572467,0.0019832462390884757,0.014870711797662079
1782943329502756400,7.86675634765625,-0.09302841230928897,0.0025033976556733247,0.011918915070651565
1782943329512741600,7.87674169921875,-0.11083411811292171,-0.005325268409680575,0.0032403381946729494
1782943329522726700,7.8867265625,-0.11517360862195491,0.0011008556476794183,0.001087256380589679
1782943329532710700,7.896710693359375,-0.10529869581758976,-0.0003475347960367799,0.0030159639874240383
1782943329542695400,7.9066953125,-0.09197802647352218,0.0015004494245164095,-0.0023277853604406116
1782943329552680400,7.916680419921875,-0.10170388619601727,-0.003926087402552366,-0.008004655103210825
1782943329562665500,7.92666552734375,-0.10424538737237453,0.003770750710368156,0.004087794470018707
1782943329572650500,7.936650390625,-0.10304945558607578,-0.0051959064089693125,0.0049946504991152324
1782943329582635500,7.946635498046875,-0.0966173767119646,-0.001347396020963788,0.004776564468757715
1782943329592620300,7.956620361328125,-0.10500117417573929,-0.005959365062136203,0.00797549065751955
1782943329602605600,7.96660546875,-0.09976444256603717,0.0006398322734981775,0.006535772144026122
1782943329612590600,7.976590576171875,-0.10948854872286319,-0.0036476175210438666,0.010294983113650232
1782943329622575600,7.98657568359375,-0.09960954426527023,-0.0037663119972683487,-0.004874679664545693
1782943329632559600,7.9965595703125,-0.08793956473767757,-0.0068042183884419495,-0.002420977785938885
1782943329642544400,8.00654443359375,-0.09631868602633475,0.002306030186358839,0.0016065675469581037
1782943329652529400,8.016529296875,-0.10260171181857586,-0.0034639315172098574,-0.0028235421212855724
1782943329662514400,8.026514404296876,-0.10574702410697936,-0.001097512913122773,0.00618958448828198
1782943329672499500,8.03649951171875,-0.10724223110079764,0.003947532049380242,0.010584919670666567
1782943329682484500,8.046484375,-0.10424714093804359,-0.0034662148058414457,-0.0009047006046283058
1782943329692469200,8.05646923828125,-0.10948621063530445,0.003057451341859996,0.002599663387669716
1782943329702454500,8.06645458984375,-0.09751461781263351,-0.004170143557805568,0.006050755972904153
1782943329712439600,8.076439453125,-0.10365151313245295,-0.006648991294112056,0.0011811566255637443
1782943329722424600,8.086424560546876,-0.09706395143568515,-0.004518281142041087,0.012579054913239088
1782943329732408600,8.09640869140625,-0.10080372248589992,-0.002742266179155558,0.00438973199208267
1782943329742393600,8.1063935546875,-0.0999070659071207,-0.0024146416599862275,0.004682097968203016
1782943329752378400,8.11637841796875,-0.0934761560767889,0.0014771781467832624,0.01051312850951217
1782943329762363400,8.12636328125,-0.10095686722099781,-0.0021537805004045365,0.0018279278132133185
1782943329772348400,8.136348388671875,-0.102155721616745,-0.0018055333183147012,0.004715278718597255
1782943329782333400,8.14633349609375,-0.10574760862886905,0.0020963694910518826,0.0011431079038069583
1782943329792318500,8.156318359375,-0.0973708254277706,-0.0015083587363362311,0.005398212631593923
1782943329802303500,8.166303466796874,-0.10604746835827827,0.0031800730745308097,0.002853138108528219
1782943329812288500,8.17628857421875,-0.10664368068575858,-0.002437766807246953,-0.00034068036356475203
1782943329822273500,8.1862734375,-0.09871464125216006,0.00913854308752343,0.008570520241488702
1782943329832257500,8.196257568359375,-0.0984124434351921,0.005902209781110286,-0.007900233464222401
1782943329842242600,8.20624267578125,-0.10828735623955726,-0.001942749831918627,0.0015131582090398296
1782943329852227300,8.216227294921875,-0.11577215903699398,0.0014822379143908618,-0.001474435917136725
1782943329862212400,8.22621240234375,-0.10559914006888865,0.0000785633952356875,-0.002865995306812692
1782943329872197400,8.236197265625,-0.09287994374930858,-0.0005242796024307609,0.0028010631447075865
1782943329882182400,8.246182373046874,-0.10440262376070022,0.0011358538958244025,0.005983145513234194
1782943329892167700,8.256167724609375,-0.09692191261649132,0.0013538257617503404,0.004264137417613528
1782943329902152400,8.26615234375,-0.09228080881237984,-0.0033616036538966,-0.0015374683831003494
1782943329912137500,8.276137451171875,-0.10335574505627154,-0.010479728563409297,0.0024480598723981527
1782943329922122500,8.28612255859375,-0.11532499979138373,-0.0023102862363681195,0.0016004574665799737
1782943329932106500,8.2961064453125,-0.09991232660412788,-0.002011175425630063,0.004204349504795391
1782943329942091500,8.306091552734374,-0.09661913027763366,0.0022991255215369165,0.011279158145678229
1782943329952076500,8.31607666015625,-0.10559797102510929,-0.0007088789217174052,0.0013635000556823796
1782943329962061300,8.326061279296875,-0.09512626137137413,0.0043548707412555815,0.0020244299161364322
1782943329972046300,8.33604638671875,-0.11053951908051966,-0.0013205993455834685,0.004513993125990964
1782943329982031600,8.346031494140625,-0.10095978983044623,0.0042457660772837694,0.0006547444315510802
1782943329992016600,8.3560166015625,-0.0979676222771406,0.006379599768202751,-0.0024824256495921872
1782943330002001400,8.36600146484375,-0.09392974506318569,0.005571735717728734,0.0001987990912864916
1782943330011986400,8.375986328125,-0.09827274270355701,-0.0025267602649517358,0.0033895008743973446
1782943330021971500,8.385971435546875,-0.10246668726205825,-0.00011076689809560775,0.0091729042981402
1782943330031955500,8.39595556640625,-0.10501169556975364,-0.0005097944193519652,-0.002637499763583764
1782943330041940500,8.4059404296875,-0.10082067362070082,-0.0008637954887934029,0.005577014681044966
1782943330051929600,8.4159296875,-0.10201660540699958,0.00045652986215427517,0.007754575632547493
1782943330061913600,8.42591357421875,-0.09767711489796638,-0.0003093034111894667,0.003635454442503396
1782943330071898400,8.4358984375,-0.10231354252696037,0.005580850605946034,0.007065616120852064
1782943330081883400,8.44588330078125,-0.09542845918834209,0.0007044950075447559,0.008226723188941833
1782943330091868400,8.455868408203125,-0.10096680409312248,0.0024272454132325946,-0.0013127311329590157
1782943330101853400,8.465853515625,-0.10201485184133052,-0.006062021719012409,0.007704761124472133
1782943330111838500,8.47583837890625,-0.10560673885345459,-0.0009508527177385986,0.006311436752683948
1782943330121823500,8.485823486328124,-0.09977437943816185,-0.0045112851456739,-0.007185016133263707
1782943330131808500,8.49580859375,-0.09064882369637489,0.0020124905998818573,-0.002466396963398438
1782943330141793500,8.50579345703125,-0.09768120655119418,0.0010784794190898538,0.006857729540811851
1782943330151778600,8.515778564453125,-0.09079787677824497,0.0007729571338742971,-0.0018246056282543576
1782943330161762600,8.525762451171875,-0.09618424599170684,0.002094542860146612,0.008400406105280853
1782943330171747300,8.535747314453126,-0.10980419054329395,0.0023719898283481597,0.004062281002849341
1782943330181732400,8.545732421875,-0.1021726727515459,-0.003168035576865077,0.0007611205656081438
1782943330191717400,8.55571728515625,-0.10935527773201464,0.00025971038211137056,0.002216159945819527
1782943330201702400,8.565702392578125,-0.08645955531299114,-0.008011895411461592,0.0028217908389051444
1782943330211687700,8.575687744140625,-0.09798048175871371,-0.004168682253081351,0.007026377805718221
1782943330221672400,8.58567236328125,-0.10187222850024699,-0.0009911664618179202,-0.005296989879978354
1782943330231657500,8.595657470703125,-0.09483926112353801,-0.0009658858900889754,-0.0028144135333364826
1782943330241642500,8.605642578125,-0.1042681837260723,0.0053912097853608424,0.0020581472393590957
1782943330251627500,8.61562744140625,-0.09738485395312309,0.00448987703146413,-0.00800671919613378
1782943330261611500,8.625611572265624,-0.1021726727515459,-0.0028686142388731238,0.009412480641098227
1782943330271596500,8.635596435546875,-0.106812607511878,0.004049987776856869,0.0017135578856570645
1782943330281581300,8.645581298828125,-0.10396890851855277,0.0020751440399326385,0.0012456503962515852
1782943330291566300,8.65556640625,-0.10247194795906543,-0.003625423955544829,-0.0028297983321361243
1782943330301551600,8.665551513671875,-0.09708557874560356,0.0019338724057190119,-0.000603648998553399
1782943330311536600,8.67553662109375,-0.09304594796597956,0.009279595526028424,0.011274018462968523
1782943330321521400,8.685521484375,-0.10516542482674121,0.015675123515725135,0.0017018971306155435
1782943330331506400,8.69550634765625,-0.10187281302213669,-0.0031857721629552542,-0.00340083740245318
1782943330341491500,8.705491455078125,-0.09200023830533027,-0.002897730735503137,0.0012148693822091445
1782943330351476500,8.7154765625,-0.10367255592048168,0.00041185047021135684,0.007691232639329973
1782943330361460500,8.72546044921875,-0.10023439816534518,-0.00021462913136929273,0.0018549140015500596
1782943330371445500,8.735445556640625,-0.09903846637904644,0.00174571115616709,0.001474995322851464
1782943330381430300,8.74543017578125,-0.09888473712205886,0.0008343501986004412,0.0020045333390007725
1782943330391415300,8.755415283203124,-0.094242464274168,-0.003939202612452209,0.0044619524114998055
1782943330401400600,8.765400634765625,-0.09618541503548622,0.005831610496621579,0.003624643070832826
1782943330411385600,8.775385498046875,-0.10680910038053988,0.0025245683078654107,0.002677868306590244
1782943330421370600,8.78537060546875,-0.10007540821135044,-0.0023868951365351677,-0.0027597310538985767
1782943330431355400,8.79535546875,-0.10696049154996871,-0.008010452373046428,-0.002089501358848065
1782943330441340400,8.80534033203125,-0.09723346278369425,-0.004604973044805228,0.0023745448283269068
1782943330451325400,8.815325439453124,-0.09992752417325973,-0.003079626641049981,0.003355842916679103
1782943330461309400,8.825309326171874,-0.09588847791552543,0.008482344201114028,0.0030801289645489304
1782943330471294500,8.83529443359375,-0.0984340707451105,0.004819547377247363,-0.0040026095377514136
1782943330481279500,8.845279541015625,-0.08811024512946605,-0.002321446951199323,0.006571667724603321
1782943330491264500,8.855264404296875,-0.11010931096971034,-0.004335270991642028,0.008671939355926587
1782943330501249500,8.86524951171875,-0.09978373178839683,0.00043336818227544425,0.003937250400672201
1782943330511234600,8.875234619140626,-0.1003822822034359,0.004477474207617342,0.0004926332219969481
1782943330521219600,8.885219482421874,-0.0909574512541294,0.0030708405463956293,0.008604248981154524
1782943330531204400,8.895204345703124,-0.10397183112800121,-0.006522131777741014,0.006808280358917545
1782943330541189400,8.905189453125,-0.1035188266634941,0.005707289997208863,0.0017911326169152743
1782943330551174400,8.91517431640625,-0.09797814367115497,0.0016429449014365672,0.00487474816320464
1782943330561158400,8.925158447265625,-0.1056102459847927,0.008542531689442693,0.005405902747705113
1782943330571143700,8.935143798828125,-0.09633271455168724,0.0004414601571857929,0.004858995754935313
1782943330581128700,8.945128662109376,-0.09857669408619403,0.0001391162097454071,0.005802971207315567
1782943330591113500,8.955113525390624,-0.09663198975920677,0.006134100574534386,-0.0054853726085275405
1782943330601098500,8.965098388671874,-0.09498656063973904,-0.000606587591022253,-0.00323920340022305
1782943330611083500,8.97508349609375,-0.09813304197192191,-0.00432171739032492,0.014444720920955296
1782943330621068500,8.985068603515625,-0.10097323383390903,0.006024484453909099,0.007449742900498677
1782943330631053600,8.995053466796875,-0.10665712468922138,0.004423077139258384,0.0032086164657142945
1782943330641038300,9.005038330078126,-0.10411211638152598,0.004387841429095715,0.009641633771453053
1782943330651023600,9.015023681640624,-0.09738134682178497,0.006615344752836972,-0.0034166377597837708
1782943330661007400,9.02500732421875,-0.10531213982105254,0.0021154029850848017,-0.002915531253674999
1782943330670992600,9.03499267578125,-0.10142390021085738,0.008328468813654035,0.00038276593962218613
1782943330680977700,9.044977783203125,-0.09977554848194121,-0.0006255114872008562,0.006958867810748052
1782943330690962400,9.05496240234375,-0.10291676911711692,0.0056148259407840665,0.0027230500220321117
1782943330700947500,9.064947509765625,-0.105462361946702,-0.004509294117987155,0.008071496094611939
1782943330710932500,9.074932373046876,-0.09693009592294692,0.003909720789641142,0.0019585501892492173
1782943330720917500,9.08491748046875,-0.09827508079111576,0.0027845709509216245,-0.0058243427889072335
1782943330730902500,9.094902587890624,-0.09527823706269263,-0.001569203811790794,-0.009361364658502862
1782943330740887300,9.10488720703125,-0.09662263740897178,0.005805727136693894,0.0019921190987108274
1782943330750872600,9.11487255859375,-0.10245499682426452,0.0004349573511630296,0.005691418857930694
1782943330760856600,9.124856689453125,-0.09512100067436695,-0.0017309154458343982,0.003042813178442884
1782943330770841600,9.134841552734375,-0.09811024561822414,0.00289221431016922,0.005473095365555491
1782943330780826600,9.14482666015625,-0.09975918186902999,-0.002400667933560908,0.0047126460868050345
1782943330790811600,9.154811767578124,-0.09990823495090007,-0.0009353080887347459,0.0050986291801091285
1782943330800796400,9.16479638671875,-0.09975742830336093,-0.004265292761661112,-0.00589331637189025
1782943330810781400,9.174781494140625,-0.10753624561131,-0.003170373664423823,0.007922237516765017
1782943330820766500,9.184766357421875,-0.09705810621678829,-0.006297182181756943,0.0074506562159513115
1782943330830751500,9.19475146484375,-0.08583528593480587,-0.0046769240361638365,0.001091640294762328
1782943330840736500,9.204736572265626,-0.09361761037409305,0.0019490334422327578,0.0010223584678140467
1782943330850721500,9.214721435546876,-0.08912614417374133,-0.006227806739974767,0.009497313946916256
1782943330860705500,9.22470556640625,-0.09660743983983992,0.006012666151951998,0.007084060526418034
1782943330870690600,9.234690673828124,-0.10303893419206142,-0.0039779089213348925,0.006713062656403053
1782943330880675600,9.244675537109375,-0.09495441193580627,0.0007891410836949944,0.003974299042008351
1782943330890660600,9.25466064453125,-0.10138882889747619,-0.0014674970029853282,0.0015058334191096945
1782943330900645400,9.264645263671875,-0.09585223755836486,-0.0064221237356774504,0.0029085832063690756
1782943330910630400,9.27463037109375,-0.10602642557024955,-0.005738306189980357,0.001664165785978548
1782943330920615400,9.284615478515626,-0.10378127699196338,-0.0070984155620448285,-0.004974009569885675
1782943330930600400,9.294600341796874,-0.09046469930112361,-0.012131203831173479,0.004592284809879493
1782943330940585700,9.304585693359375,-0.10482932474017143,-0.0022711050034500656,-0.0000573173945187591
1782943330950570500,9.314570556640625,-0.10138707533180713,0.0005797361167147755,-0.002198786402621772
1782943330960554500,9.324554443359375,-0.09704641577899456,-0.00561519126696512,-0.006340692529920488
1782943330970539500,9.33453955078125,-0.10138590628802775,-0.004733750523626804,-0.0009457815336878411
1782943330980524500,9.344524658203126,-0.10273498280942439,0.0010434994372539221,0.00411172105158912
1782943330990509600,9.354509521484376,-0.10049217231869698,0.0021787505448795856,0.007294257794553414
1782943331000494600,9.36449462890625,-0.10453180309832096,-0.002774378350470215,0.002933457352721598
1782943331010479400,9.374479248046875,-0.10198796383440493,-0.002926920297369361,0.011850882202584762
1782943331020464400,9.38446435546875,-0.10213643239438533,0.0022711780686862767,0.006386506716313306
1782943331030449700,9.39444970703125,-0.09779577284157276,-0.012906334655825047,-0.0052072863195091485
1782943331040434700,9.4044345703125,-0.0985474679917097,-0.0027128026226535436,0.008277836888248565
1782943331050419500,9.41441943359375,-0.10543021324276923,-0.0012327018664218484,-0.00473091239585774
1782943331060404500,9.424404541015624,-0.10064005635678767,0.006639876405894756,-0.00009121053096605464
1782943331070388500,9.434388427734374,-0.08956628915667533,-0.0020761121543124315,-0.001967630828137044
1782943331080373500,9.44437353515625,-0.0997410616904497,-0.008813000927586108,0.006069778050493914
1782943331090358500,9.454358642578125,-0.09225918150246143,0.0022794161740690468,-0.002247603113565128
1782943331100343600,9.464343505859375,-0.09884674319922923,0.0007739252482540905,-0.0024848185360780914
1782943331110328300,9.474328369140625,-0.09585749825537204,0.00018304668301716447,-0.00038383908527903256
1782943331120313300,9.484313232421876,-0.09630874915421009,-0.001377498898282647,-0.008805760619335341
1782943331130298600,9.494298583984374,-0.10154489624202251,0.002170786434132606,-0.0018634580676094629
1782943331140283600,9.50428369140625,-0.09765314950048923,-0.00489405565187335,0.003585217526031192
1782943331150268700,9.5142685546875,-0.10229074617326259,-0.001033142440021038,0.010263517113018315
1782943331160253400,9.52425341796875,-0.10812661271989345,0.006152019823715091,0.00005965319878887385
1782943331170237400,9.534237548828125,-0.09810089326798915,-0.0013269194885157049,-0.0037202534989919512
1782943331180222500,9.544222412109375,-0.09256664001643657,-0.006010729923192412,0.010381485503457952
1782943331190207500,9.55420751953125,-0.10244330638647078,-0.0013613880136981605,0.0022741554770618674
1782943331200192500,9.564192626953124,-0.10827858841121196,0.0016181027211248874,0.0010873134628054686
1782943331210177500,9.574177490234375,-0.09585983634293078,-0.002339000874198973,0.0019567646575393153
1782943331220162600,9.58416259765625,-0.09451543599665164,0.0003042253772728145,0.006056078318704385
1782943331230147600,9.594147705078125,-0.09212181885838508,-0.003850117823202163,0.004429911022132728
1782943331240132600,9.604132568359375,-0.10214753831028937,-0.004152096444461495,0.006895337587862741
1782943331250117600,9.61411767578125,-0.1030482865422964,-0.00282497602654621,0.011028727048565633
1782943331260102400,9.624102294921874,-0.10559621745944023,0.006324965237826109,0.013920338570536114
1782943331270086400,9.63408642578125,-0.09407178388237952,-0.003664239862281829,-0.0004672773017431609
1782943331280071400,9.644071533203125,-0.10110182864964008,-0.005592687174212187,0.0005058854292146861
1782943331290056400,9.654056396484375,-0.09122516227960586,-0.003374755396414548,-0.001235487478552386
1782943331300041500,9.66404150390625,-0.1006517467945814,-0.007154639261309057,0.006221733192214742
1782943331310026500,9.674026611328125,-0.10169511836767196,0.0048027971718460315,0.0020927093793754463
1782943331320011500,9.684011474609376,-0.10319324797093868,-0.005315879526827484,0.005711030023987405
1782943331329996500,9.69399658203125,-0.10499006825983524,-0.001238620150554925,0.005035247370984871
1782943331339981600,9.703981689453125,-0.10019991137385367,-0.00010210866760462522,0.0019992863417253827
1782943331349966600,9.713966552734375,-0.09630874915421009,0.0039076566967181856,-0.005541246964631136
1782943331359951600,9.72395166015625,-0.10229483782649039,0.002763637760747224,-0.0006602380239986815
1782943331369935600,9.733935546875,-0.11037409938573836,-0.001928410779312253,-0.0015025409169029443
1782943331379920400,9.74392041015625,-0.10438742619156836,-0.0037573249732144173,0.001411168272444047
1782943331389905400,9.753905517578126,-0.1063338840842247,0.0001904993371106684,-0.0012480843819328584
1782943331399890400,9.763890380859374,-0.10483633900284767,-0.003288885477557778,-0.0028036797934793867
1782943331409875700,9.773875732421875,-0.09630816463232039,-0.010108959022257476,0.0004559521901304833
1782943331419860500,9.783860595703125,-0.09795710088312626,0.0006152458215132355,-0.004057963304047007
1782943331429845500,9.793845458984375,-0.10424304928481579,0.004247574441879987,0.00036575772260548546
1782943331439830500,9.80383056640625,-0.10603636244237423,0.002953424711804837,-0.0015023788034101016
1782943331449815600,9.813815673828126,-0.09436404482722281,0.002044547972269356,0.007076516540779266
1782943331459800600,9.823800537109374,-0.10798106676936149,-0.0016751666706055401,0.0033393530061817727
1782943331469784600,9.83378466796875,-0.10079729274511337,0.0023031258432194587,0.0024598119589849376
1782943331479769300,9.843769287109374,-0.09899871889054775,-0.002605469790659845,-0.002053331783635076
1782943331489754000,9.853754150390625,-0.0960036287277937,-0.004949366035684943,0.006721624988771509
1782943331499739100,9.8637392578125,-0.10079261656999587,0.000013425737153738737,0.0020266195899341253
1782943331509724400,9.873724365234375,-0.09929507148861884,-0.004252159285452217,0.0049428792126826005
1782943331519709400,9.88370947265625,-0.10019114354550838,-0.0031313568282872436,0.0023781410079216584
1782943331529694200,9.893694091796876,-0.10109013821184634,-0.0023431290600448846,0.0009934086512541397
1782943331539679200,9.90367919921875,-0.103183311098814,0.0013439984874799847,0.0009525240850169211
1782943331549664300,9.913664306640625,-0.10482698665261268,0.002438022535573691,0.0033395379525609312
1782943331559649300,9.923649169921875,-0.10706921262145042,-0.0006357771528884769,0.006515628971718252
1782943331569633300,9.93363330078125,-0.10751578734517096,-0.0032725371309556064,-0.0006432960223522968
1782943331579618300,9.943618408203125,-0.09225099819600581,0.000530727609526366,0.00020900539146969093
1782943331589603000,9.95360302734375,-0.09733516959249973,-0.002448964054696262,0.00041237562659662217
1782943331599588000,9.963588134765626,-0.0970358943849802,-0.0029019867855124173,-0.000324051172460895
1782943331609573400,9.973573486328124,-0.10556640684306622,-0.00478266769926995,0.007972974473447539
1782943331619558400,9.983558349609375,-0.10002864646017551,-0.004683719103131443,0.009485838138253893
1782943331629543400,9.99354345703125,-0.09748363815248012,0.004386325325444341,0.00352653015833348
1782943331639528200,10.003528076171875,-0.1013707087188959,-0.010405494283419102,0.004053506324638146
1782943331649513200,10.01351318359375,-0.10376549490094185,-0.004384060303121805,0.0012181618844158946
1782943331659498200,10.023498291015626,-0.10421323866844176,-0.00817296772468835,0.009848481455165892
1782943331669483300,10.033483154296874,-0.09598083237409591,-0.00614370865309611,0.010108221520029473
1782943331679467300,10.04346728515625,-0.09792612122297287,0.00029642566330730915,0.004675663660839199
1782943331689452300,10.053452392578125,-0.10091595068871974,0.006007734248507767,0.00041848114039748905
1782943331699437300,10.063437255859375,-0.09178630329370498,-0.00020167831825092434,0.0028725757446489294
1782943331709422300,10.07342236328125,-0.09447919563949107,0.006333660000935197,0.012534398354182484
1782943331719407400,10.083407470703126,-0.10450725317895412,-0.004790102087054401,0.0009719320383854209
1782943331729392400,10.093392333984376,-0.10435469296574593,0.0009325316097587346,0.006798144840681925
1782943331739377200,10.103377197265624,-0.10076222143173218,0.0017824081710539758,0.004464080436504446
1782943331749362200,10.113362060546875,-0.10285831692814826,-0.004151091797463596,-0.000233763090102002
1782943331759347200,10.12334716796875,-0.09508008414208888,-0.00972317457506433,0.007298059470125008
1782943331769332200,10.133332275390625,-0.1054009871482849,-0.0022595058972015975,0.007529313226020895
1782943331779316200,10.143316162109375,-0.09911503874659537,-0.00947966640908271,-0.0004718667118926532
1782943331789301200,10.15330126953125,-0.10689619414210319,-0.0012248838861472905,0.005001922773406841
1782943331799286300,10.163286376953126,-0.10315350048243999,-0.005049337545130402,0.014123425677872727
1782943331809271300,10.173271240234374,-0.10719488482773304,-0.005588705118838697,0.008154215075157116
1782943331819256300,10.18325634765625,-0.1058498999595642,-0.005518124100659042,0.010442316879180725
1782943331829241300,10.193241455078125,-0.09133329882919788,0.00010346037447452545,0.005178927874704822
1782943331839226400,10.203226318359375,-0.10569675522446632,-0.0008496938982047141,-0.003303121782175731
1782943331849211100,10.213211181640625,-0.1039022730231285,0.006077913407888263,0.001722560892731417
1782943331859196200,10.223196044921876,-0.09342647171616554,-0.0036977220067754384,0.006990297278761863
1782943331869181200,10.23318115234375,-0.09806348386704922,-0.004201963468175381,0.00831976263410179
1782943331879165200,10.243165283203124,-0.09626724810004234,-0.0013736264407634734,-0.0024908441347768527
1782943331889150500,10.253150390625,-0.094173490691185,-0.0005796082525514066,-0.008871603813604452
1782943331899135200,10.26313525390625,-0.10659399632513522,-0.005190572646725923,0.006536413748131599
1782943331909120300,10.273120361328125,-0.10225158320665359,0.0021704941731877626,0.0002020756104728207
1782943331919105300,10.283105224609375,-0.10105389785468578,0.00032161490349099037,-0.007813621476560366
1782943331929090300,10.29309033203125,-0.09177285929024219,-0.0035548794699832797,0.008726923229463864
1782943331939075300,10.303075439453124,-0.10658815110623836,-0.0017261296728625893,0.005338881376502104
1782943331949060000,10.31306005859375,-0.09985387441515922,0.003940408188849687,0.001544551144435536
1782943331959045000,10.323045166015625,-0.09566402150988579,0.000649915276095271,0.004012952835252508
1782943331969030400,10.333030517578125,-0.09955576825141906,0.001741984829120338,0.0063084022620925675
1782943331979015400,10.343015380859375,-0.09147767573595046,0.0021517164074815807,0.008287401584326289
1782943331988999400,10.35299951171875,-0.0979115081757307,0.0030061595460399984,-0.002673536908056121
1782943331998984400,10.362984375,-0.09761281749010085,0.0019907719584181904,-0.001551832551881671
1782943332008969200,10.37296923828125,-0.09746493345201016,0.00237469324208796,0.0003016452611191198
1782943332018954200,10.382954345703125,-0.0965653542637825,-0.002341430293302983,0.006688668000663165
1782943332028939300,10.392939208984375,-0.08579086227118969,-0.006409793977066874,0.0011585726177087052
1782943332038924300,10.40292431640625,-0.09103110101222991,-0.0098934348417446,-0.0011910957809770479
1782943332048909300,10.412909423828125,-0.105697339746356,-0.007267762513272464,-0.00024170208467403425
1782943332058894000,10.42289404296875,-0.09851298120021819,0.0011977949498221277,0.008006520550022832
1782943332068879400,10.43287939453125,-0.09746610249578952,0.007685202474053948,0.004291061957157217
1782943332078864400,10.442864501953125,-0.11033844355046749,0.0006316854996606707,-0.0018615309720044022
1782943332088848400,10.452848388671875,-0.1077934352427721,-0.0029847879644483324,0.0010085628379019908
1782943332098833400,10.46283349609375,-0.10584756187200546,-0.0031895350226201114,0.0024050267315586095
1782943332108818200,10.472818115234375,-0.10135551114976406,-0.0034521314815618097,-0.0012972846853663213
1782943332118803200,10.48280322265625,-0.10913783558905124,-0.0038410577339120207,0.005874260044971015
1782943332128788200,10.492788330078126,-0.10958967100977897,-0.002819368269667029,0.002763726809003856
1782943332138773200,10.502773193359374,-0.09806932908594608,-0.0005015197813510895,0.005660478013684042
1782943332148758300,10.51275830078125,-0.0992664299160242,-0.010227233373373746,-0.005022673300490714
1782943332158743300,10.522743408203125,-0.09432838899195194,-0.00406977018956095,0.006532927166391164
1782943332168728300,10.532728271484375,-0.09612696284651756,-0.0024630839115940034,0.007788870627793949
1782943332178713300,10.54271337890625,-0.10151333205997944,0.0007957352212630211,-0.0023977407575352114
1782943332188697300,10.552697265625,-0.10660101058781146,-0.00039762101545929906,0.004502549283369444
1782943332198682400,10.562682373046876,-0.1042033017963171,-0.0020244184996932742,0.002205350857437588
1782943332208667400,10.57266748046875,-0.09672317517399788,-0.0020893734946846963,0.01226960765486583
1782943332218652200,10.582652099609374,-0.09791910696029663,-0.002586655492335558,0.008540207301615737
1782943332228637200,10.59263720703125,-0.09103811527490616,-0.004148297052178532,0.003209018324513454
1782943332238622200,10.602622314453125,-0.10630290442407131,-0.00588920416906476,0.005114251440926454
1782943332248607200,10.612607177734375,-0.09582710311710833,0.0001971482736058533,0.008918545944581274
1782943332258592300,10.62259228515625,-0.08924246402978897,-0.0002829085946083069,0.010028459398262203
1782943332268577300,10.632577392578124,-0.09283318199813366,-0.0028259806735441086,0.006071791911066975
1782943332278562300,10.642562255859374,-0.0967220061302185,-0.0018691731390543282,0.009353217884665355
1782943332288546300,10.65254638671875,-0.09851415024399757,0.005036478063557297,0.004904581612464972
1782943332298531300,10.66253125,-0.08744272113144397,0.001353844028059393,0.006528995343367569
1782943332308516400,10.672516357421875,-0.09058744889795779,-0.0018296083136461673,-0.0009658744736458175
1782943332318501000,10.682501220703125,-0.09896423209905623,-0.0003295059490017593,0.0036983978602103886
1782943332328486100,10.692486083984376,-0.09776888483464717,0.0019708434152416886,0.007149312348931562
1782943332338471200,10.70247119140625,-0.10435060131251811,-0.004121573442034423,0.012654910328157711
1782943332348456400,10.71245654296875,-0.09896423209905623,0.0015833784676156936,0.007166991852805949
1782943332358441500,10.72244140625,-0.09986205772161483,-0.011719791752379386,0.009547267735598143
1782943332368426200,10.73242626953125,-0.11482581809759139,-0.0013840017043054104,0.007041785437404178
1782943332378411300,10.742411376953125,-0.09911328518092631,-0.0003554806404747069,0.0025161429728148502
1782943332388395300,10.752395263671875,-0.11706453693509102,-0.024125940067414194,-0.0018776783892069941
1782943332398380300,10.76238037109375,-0.06214636731147766,-0.06633994654379785,-0.03074301783632254
1782943332408365300,10.772365234375,-0.09926292278468608,-0.006869776171632111,-0.0005943263310706242
1782943332418350300,10.782350341796874,-0.11990882045030593,-0.03364173723580315,-0.06781998336794785
1782943332428335000,10.792335205078125,-0.10987784030139446,-0.1109008997388184,-0.1839094555926509
1782943332438320000,10.802320068359375,-0.027289573463797567,0.10838729121638462,0.07757999195521698
1782943332448305400,10.812305419921875,-0.1556809755772352,0.06279326864657923,0.13958420171649194
1782943332458290400,10.82229052734375,-0.09881868614852428,0.010120576394814998,0.0215895260581281
1782943332468275200,10.832275146484376,-0.06710603554546833,0.01944808444948867,0.01149569838963216
1782943332478260200,10.84226025390625,-0.137137603148818,-0.007612794824969023,0.00018070174559252337
1782943332488244000,10.852243896484374,-0.09150164113342761,0.008505725076701491,0.00803082615750609
1782943332498229000,10.86222900390625,-0.11963467968404293,0.0015005224897526204,0.025804369557474272
1782943332508214000,10.872214111328125,-0.10272504593729972,0.0010478650851175188,0.0433739627670031
1782943332518199000,10.882198974609375,-0.09135258805155753,-0.004041073818039149,0.012709476359875406
1782943332528184000,10.89218408203125,-0.09883329919576644,0.007583349534776062,0.011414666759385727
1782943332538168800,10.9021689453125,-0.08132569955587386,0.0007027049092575907,0.010067355220101307
1782943332548153900,10.91215380859375,-0.09867781637310981,0.007040547894965857,0.00825325728612952
1782943332558139100,10.92213916015625,-0.10705518409609795,-0.003685702775418758,0.004992022433900274
1782943332568124200,10.932124267578125,-0.111243867957592,-0.004925692899152637,-0.0010441501745139248
1782943332578109000,10.94210888671875,-0.10406301654279232,0.005167758026719093,0.005298218289262149
1782943332588093000,10.952093017578125,-0.10316460639834403,-0.006080397625919431,-0.009773758551408536
1782943332598078000,10.962077880859376,-0.09268822056949139,-0.005536463474947959,-0.0035403189383796415
1782943332608063000,10.97206298828125,-0.09373276118636131,-0.009859879632014781,-0.010131458548433147
1782943332618048000,10.982048095703124,-0.10390811824202537,-0.002980531914439052,0.005068651883665006
1782943332628033000,10.992032958984375,-0.10674831010401248,0.008556468883249908,0.008249939667747822
1782943332638017800,11.002017822265625,0.30361469802856444,0.0014985131957568228,0.005867140751017723
1782943332648002800,11.0120029296875,1.1531453684955835,-0.23199967889236284,-0.3997376422870904
1782943332657988000,11.021988037109375,-2.3974814124792814,0.31579335773065687,0.5439798898093402
1782943332667973000,11.03197314453125,-0.02517886492013931,-0.04542010904131457,-0.1110780646703206
1782943332677958000,11.0419580078125,0.09779226571023464,-0.09262806961378083,-0.07550293908598832
1782943332687943000,11.05194287109375,-0.16615443879663944,-0.04821152985813096,0.12624138447269798
1782943332697927000,11.061927001953125,0.4119026387900114,0.08530945369610562,-0.1342895476407837
