time,seconds_elapsed,z,y,x
1782943335124402400,0.07140234375,-0.09882862302064895,-0.006253598768357187,0.001368256145901978
1782943335134387500,0.081387451171875,-0.09658347444236277,0.0008896240497939288,0.002541446377430111
1782943335144372700,0.091372802734375,-0.09194821585714817,0.000004365647863596678,-0.002782529690884985
1782943335154356500,0.1013564453125,-0.10571545992493629,-0.005957392300758511,0.00265517698416952
1782943335164341800,0.111341796875,-0.10691548336446284,-0.0041543797330930825,0.006708279166719876
1782943335174326800,0.121326904296875,-0.09659341131448745,-0.0016029416846111415,0.00975162435141392
1782943335184311600,0.1313115234375,-0.0871668267995119,-0.0035019437063485382,0.004375931795593351
1782943335194296600,0.141296630859375,-0.10916180098652839,0.0011968816343694924,0.012850690911873243
1782943335204281600,0.151281494140625,-0.10422317554056644,-0.004188464665785431,0.008239315525745042
1782943335214266600,0.1612666015625,-0.08776654625833034,-0.018078093004226685,-0.016418338531884364
1782943335224251400,0.17125146484375,-0.09390110349059104,-0.005972662935126573,0.0007698792607989162
1782943335234236400,0.181236328125,-0.10257891546487807,-0.005576247496064752,-0.0011383655133191495
1782943335244220400,0.191220458984375,-0.11918868948221206,0.0013250197923742233,0.006655909658665768
1782943335254205700,0.201205810546875,-0.09973580099344254,-0.005267364209983498,0.004122555256146006
1782943335264190700,0.211190673828125,-0.10497194808125496,-0.004114084255322814,0.0017655803338391706
1782943335274175700,0.22117578125,-0.10587035822570323,-0.002548844232596457,0.00913998155936133
1782943335284160500,0.231160400390625,-0.10601941130757331,-0.004049604184366762,0.005562479265616275
1782943335294145500,0.2411455078125,-0.10332359635233879,0.0021530863806605337,-0.006228235998237505
1782943335304130600,0.251130615234375,-0.09688976391255855,-0.004710040854476392,0.003691155268670991
1782943335314115600,0.261115478515625,-0.09269932648539543,0.0008044847832992672,0.0006382020054152235
1782943335324100600,0.2711005859375,-0.10781330898702143,-0.008302147062309086,-0.005741425162251107
1782943335334084600,0.281084716796875,-0.10886252577900886,-0.005073010681662708,-0.002009426426538266
1782943335344069400,0.2910693359375,-0.09734276837706565,-0.009348075918667018,0.0022676526710391043
1782943335354054700,0.3010546875,-0.09958674791157245,-0.004000467813014984,0.0014155019542668014
1782943335364039700,0.311039794921875,-0.09973755455911158,-0.004721548629179596,-0.0013291936439927667
1782943335374024700,0.321024658203125,-0.09839256969094276,-0.0027071583331562577,0.0068956184323644264
1782943335384009500,0.331009521484375,-0.10916764620542525,0.007679448586702347,0.0027817716390592974
1782943335393994500,0.340994384765625,-0.1073749175697565,0.0007643537023104726,-0.0032631756475660946
1782943335403979500,0.3509794921875,-0.10273790541887283,-0.00678092884439975,0.0016263545262394472
1782943335413964500,0.360964599609375,-0.10677928976416587,-0.0001642323846928775,0.0013083563519408925
1782943335423948500,0.370948486328125,-0.110969727191329,-0.0040032808246091,-0.004513568434305489
1782943335433933600,0.38093359375,-0.10214169309139251,-0.002162256067804992,0.0011317576760193333
1782943335443918600,0.390918701171875,-0.11037000773251056,0.00330388211729005,0.0017568079389166085
1782943335453903600,0.400903564453125,-0.10543079776465893,0.006390358624234795,0.00238623754940927
1782943335463888600,0.410888671875,-0.10094108512997627,-0.004097388848848641,0.001590063936728984
1782943335473873700,0.420873779296875,-0.10333645583391189,-0.003592288870923221,-0.002872413631156087
1782943335483858700,0.430858642578125,-0.1028869585007429,-0.0016785459377802907,-0.003479549211449921
1782943335493843500,0.440843505859375,-0.09944412457048893,-0.0003604125439189374,0.0028926207355456424
1782943335503828500,0.450828369140625,-0.09824351660907268,-0.001096216005180031,0.0071596213971031825
1782943335513812500,0.4608125,-0.10123451511859893,0.003628967619501054,-0.00599011182684917
1782943335523797500,0.470797607421875,-0.10587152726948261,-0.00972998790834099,0.003726765438169241
1782943335533782500,0.480782470703125,-0.09255436505675316,-0.008632785522472113,0.012824168231128714
1782943335543767800,0.490767822265625,-0.10811492228209972,-0.00781577005116269,0.00792149544795975
1782943335553752600,0.500752685546875,-0.09823708686828612,-0.003970748528186231,-0.004420862349285744
1782943335563737600,0.510737548828125,-0.09464578437805175,0.0059176448122598225,-0.0006067519878037274
1782943335573722600,0.52072265625,-0.09868541515767573,0.003360178881790489,0.009317041459586471
1782943335583707600,0.530707763671875,-0.10542086089253425,-0.005575188050139695,0.0014495731872273608
1782943335593692400,0.5406923828125,-0.10482114143371582,-0.005166278455685824,0.0011690346462186426
1782943335603676700,0.5506767578125,-0.10258008450865745,-0.006805277834367006,-0.0007240627911174669
1782943335613661400,0.560661376953125,-0.08806582146584988,0.001769420825317502,0.002939711280283518
1782943335623646500,0.570646484375,-0.08537351364195346,-0.005080901727173477,0.004738015706790611
1782943335633631700,0.5806318359375,-0.10019231258928775,-0.01102238407274708,0.004263630527537316
1782943335643616800,0.59061669921875,-0.09884615867733955,-0.0026045564752072096,0.002645276644662954
1782943335653601500,0.6006015625,-0.09181319130063056,-0.0034917511058971283,0.0013759416954359038
1782943335663586600,0.610586669921875,-0.10034311923682689,-0.003003273469209671,0.003454008344816975
1782943335673571600,0.620571533203125,-0.1052794065952301,-0.003048391252569854,0.00805891745754052
1782943335683556600,0.630556640625,-0.10033902758359908,-0.002245203377213329,0.00041550829859916116
1782943335693540600,0.64054052734375,-0.10123802224993705,-0.007580335593782365,0.0076295815629884595
1782943335703525600,0.650525634765625,-0.10692366667091846,-0.00432124246628955,-0.0006165290297241882
1782943335713510400,0.660510498046875,-0.10557692823708056,-0.004154215336311608,0.005515580517123453
1782943335723495400,0.670495361328125,-0.09391104036271572,-0.001989949974510819,0.0030521541122347116
1782943335733480700,0.680480712890625,-0.09780395614802836,-0.002071746506448835,0.0049256426668027415
1782943335743465700,0.6904658203125,-0.09795359375178814,0.0016594759111292659,0.008983653919911011
1782943335753450800,0.70045068359375,-0.10004793568253517,0.0028038784395903347,0.003559852472622879
1782943335763435500,0.710435546875,-0.09660393270850182,0.002581230398546904,-0.0012806920268805698
1782943335773419500,0.72041943359375,-0.10049275684058666,-0.006206873549800366,0.0014363575126277281
1782943335783404500,0.730404541015625,-0.1052794065952301,0.00046986426776275035,0.0003088878526585176
1782943335793389600,0.7403896484375,-0.10752806230485439,0.0003419453054666519,0.008648421483021229
1782943335803374600,0.75037451171875,-0.09106734136939049,-0.007023341031838208,0.0023116881755879145
1782943335813359600,0.760359619140625,-0.10258943685889244,-0.006270422038994729,0.0009895407603122293
1782943335823344600,0.7703447265625,-0.0992974095761776,0.004631623589713126,0.005013741075363941
1782943335833329700,0.78032958984375,-0.10976911922991275,-0.002532605483848601,0.008403296748688444
1782943335843314700,0.790314697265625,-0.10423018980324268,-0.004885653149709106,0.010451717178476974
1782943335853299700,0.8002998046875,-0.10378127699196338,-0.0038272301379591225,0.003254690947011113
1782943335863283700,0.81028369140625,-0.09959434669613837,0.0019752638620324434,-0.0030476879996713248
1782943335873268500,0.8202685546875,-0.10363397747576236,0.0014847221324220299,-0.005621310480497777
1782943335883253500,0.83025341796875,-0.09600538229346275,-0.003494052660837769,0.0004175723915221169
1782943335893238500,0.840238525390625,-0.11336392885148525,-0.002274557335861027,0.0024654676649253815
1782943335903223600,0.8502236328125,-0.10199322453141212,-0.007434022458270192,0.005529545110394246
1782943335913208600,0.86020849609375,-0.10678162785172461,-0.0044148938328027725,0.011763489330210722
1782943335923193600,0.870193603515625,-0.09675532387793064,0.003645188101939857,-0.001067775361984968
1782943335933178600,0.8801787109375,-0.08897358396053313,-0.008458470135182142,0.001104833136475645
1782943335943163600,0.89016357421875,-0.1084293950587511,-0.0011467223497107625,0.0055316503025125705
1782943335953147600,0.900147705078125,-0.09660802436172962,-0.005920421291235834,0.0009747587497113272
1782943335963132700,0.910132568359375,-0.09630758011043071,-0.004333645290136337,0.0029724673389922825
1782943335973117700,0.92011767578125,-0.10423837310969829,-0.013296174223627895,0.0018512447567190975
1782943335983102500,0.9301025390625,-0.11007131704688071,-0.011317311898712068,-0.005496711419872008
1782943335993087500,0.94008740234375,-0.10333411774635315,-0.0036697928202338516,0.004220636202604509
1782943336003072500,0.950072509765625,-0.1048304937839508,0.0036671259391121563,0.009341787741775624
1782943336013057800,0.960057861328125,-0.10438216549456118,-0.006477287989016622,-0.0007017048288369551
1782943336023042600,0.97004248046875,-0.09674947865903377,-0.0009656118954531848,0.004526427915878594
1782943336033026800,0.98002685546875,-0.09495207384824753,-0.006730513831414282,0.007462042976357042
1782943336043011600,0.990011474609375,-0.09285597835183143,-0.002012143540009856,0.0052484403138048944
1782943336052996600,0.99999658203125,-0.10153320580422878,-0.004489292509574443,0.0014348185760900377
1782943336062981600,1.009981689453125,-0.0940513256162405,-0.0022302067374810573,0.009333992594387382
1782943336072966700,1.019966552734375,-0.10272913759052753,-0.007790233751107007,-0.0033073527160100637
1782943336082951400,1.029951416015625,-0.09808628022074699,-0.007814491409529,-0.0017218964557396247
1782943336092936400,1.0399365234375,-0.11230126805603503,-0.0028816198509186504,0.00817062507055234
1782943336102921500,1.04992138671875,-0.10242284812033176,-0.007481916720606386,0.0053543620734242715
1782943336112906800,1.05990673828125,-0.09853402398824691,-0.004247574441879987,-0.006752223339723423
1782943336122890800,1.069890869140625,-0.10302315210103988,-0.0015519786823540926,0.006992977859615348
1782943336132875800,1.079875732421875,-0.09613923780620097,-0.007551986282132566,0.01067382636340335
1782943336142860500,1.089860595703125,-0.09853577755391597,0.001516742972191423,0.00397556170062162
1782943336152845600,1.099845458984375,-0.09913257440328598,-0.004227645898703485,0.0030219051044434305
1782943336162830600,1.10983056640625,-0.09658581252992153,0.000753594846278429,-0.00453798135635443
1782943336172815600,1.119815673828125,-0.10855915891826153,0.0009841339328326285,0.0018267679025884716
1782943336182800600,1.129800537109375,-0.09524258122742175,-0.014354378039669245,0.007709720427379943
1782943336192785400,1.139785400390625,-0.09584054712057113,-0.009897581293899565,0.011399747751466929
1782943336202770700,1.149770751953125,-0.09210019154846667,-0.008242489296942948,0.0045062390777980904
1782943336212754400,1.15975439453125,-0.10451952813863753,-0.007810874680336565,0.0107069066490978
1782943336222739700,1.16973974609375,-0.09209843798279761,-0.0017002463129349053,0.00375735693925526
1782943336232724700,1.179724853515625,-0.08865501953065395,-0.0016352913179434835,-0.0012378346992656588
1782943336242709800,1.189709716796875,-0.08955518324077129,-0.003621642829570919,-0.0022098124034237113
1782943336252694500,1.199694580078125,-0.09314999286234378,0.0007071984212845563,-0.007315159018686972
1782943336262679600,1.209679443359375,-0.10811726036965846,0.0017775858654640615,0.00832666501563508
1782943336272664600,1.21966455078125,-0.09928981079161167,-0.00044602673444896934,0.002241655146679841
1782943336282649600,1.229649658203125,-0.09809095639586449,-0.007272000296972692,-0.005473111348575912
1782943336292633600,1.239633544921875,-0.10422259101867676,-0.002182440339308232,0.010462818527803756
1782943336302618600,1.24961865234375,-0.10212824908792972,-0.003073050769791007,0.009363323720148763
1782943336312603600,1.259603759765625,-0.1021247419565916,-0.008289926901552825,0.014176820382522418
1782943336322588700,1.269588623046875,-0.10452011266052723,0.0005891067332588136,0.0045772813202813265
1782943336332573700,1.27957373046875,-0.09748597624003887,0.004711977083235979,0.00845319117186591
1782943336342558700,1.289558837890625,-0.10227671764791012,-0.0019390417711809276,-0.0011695050036767496
1782943336352543500,1.29954345703125,-0.08806231433451175,0.000950268195848912,0.0010260825115721672
1782943336362528500,1.309528564453125,-0.08506605512797832,0.00021751520819962024,0.010896926495595835
1782943336372513500,1.319513427734375,-0.10257540833353995,-0.003931348099559545,0.0055226678450359026
1782943336382497500,1.32949755859375,-0.11095452962219715,-0.010414298644382506,0.013366001756559125
1782943336392482600,1.339482666015625,-0.08880757974386215,-0.006858122266456484,-0.0023875070578884333
1782943336402467600,1.349467529296875,-0.0931453166872263,-0.000941573432739824,0.0028257660444127395
1782943336412452600,1.35945263671875,-0.10690846910178661,-0.002715907895192504,0.011706082887435331
1782943336422437600,1.369437744140625,-0.10540741688907146,0.0003843231424689293,0.0012448124293237923
1782943336432422700,1.379422607421875,-0.10660276415348052,-0.0026727811395190655,-0.0028290768129285424
1782943336442407700,1.38940771484375,-0.09613280806541442,-0.012950977515149861,0.00011899130374658852
1782943336452392700,1.399392822265625,-0.09254209009706973,-0.002756970557942986,0.0062703124411404125
1782943336462377500,1.40937744140625,-0.0949357072353363,0.004255465487390756,0.0005649130069185048
1782943336472361500,1.419361572265625,-0.09972527959942817,0.002500401980988681,0.007617356835654936
1782943336482346500,1.429346435546875,-0.10391571702659129,-0.00017605068664997814,0.017516079773870295
1782943336492330800,1.439330810546875,-0.09164718708395958,-0.0007036730236373842,0.007925029978761449
1782943336502315800,1.449315673828125,-0.09344751450419425,0.0033746823311783373,-0.0011831910357344895
1782943336512300800,1.45930078125,-0.0943476782143116,-0.0038709596818313,0.00707790249697864
1782943336522285800,1.469285888671875,-0.11035597920715808,-0.002482848057989031,0.0003212313110008836
1782943336532270800,1.479270751953125,-0.0956932476043701,0.0011904884262010453,-0.00021766133867204187
1782943336542255900,1.489255859375,-0.09794014974832534,-0.0024395386392250655,0.01582423139652237
1782943336552239900,1.499239990234375,-0.1057236432313919,-0.005654719559755176,-0.005087386266887188
1782943336562225000,1.509224853515625,-0.0973451064646244,0.00035761779863387346,0.00783466198130045
1782943336572210000,1.5192099609375,-0.10557634371519088,-0.0031962570243515074,0.005516498399153352
1782943336582194700,1.529194580078125,-0.09734627550840377,-0.0019967085088603196,0.005033258626586757
1782943336592179700,1.5391796875,-0.10423077432513236,-0.002561320121679455,0.0019717247646534814
1782943336602164700,1.549164794921875,-0.10183540362119674,-0.001870853639487177,0.006899696385860443
1782943336612150000,1.55914990234375,-0.10482990926206111,0.0010501301074400543,0.0005020632040454075
1782943336622135000,1.569135009765625,-0.10737316400408745,-0.0030014468383044004,-0.0022444727248512207
1782943336632119800,1.579119873046875,-0.09510288049578666,-0.007946721220761538,0.00596854844901245
1782943336642103800,1.589103759765625,-0.10288578945696353,-0.004582158424798399,0.007648541991785168
1782943336652088800,1.5990888671875,-0.09689677817523479,-0.0025153255554847417,-0.0014143420436419545
1782943336662073900,1.609073974609375,-0.10302899731993674,-0.0013109182017855346,-0.003249777309875935
1782943336672059000,1.619058837890625,-0.10362696321308612,-0.002238992832135409,0.0049985800388501955
1782943336682044000,1.6290439453125,-0.09839140064716338,0.003828819306846708,0.007611707979580387
1782943336692028700,1.639028564453125,-0.1006347956597805,-0.007889639004971832,-0.0021191978107905013
1782943336702013700,1.649013671875,-0.09808920283019543,-0.0013818097472190856,0.004334704736061394
1782943336711999000,1.6589990234375,-0.09674363344013691,-0.0016189429713413118,-0.006113633175240829
1782943336721984000,1.66898388671875,-0.10542495254576205,-0.005251454254798591,0.001980077034467831
1782943336731968000,1.678968017578125,-0.08851414975523948,-0.003972502093855292,0.008796547549706882
1782943336741953000,1.688953125,-0.09240531197488308,-0.00019289222359657285,-0.0044968821609858425
1782943336751937800,1.698937744140625,-0.10856325057148933,-0.00405181440776214,0.0012247651551384477
1782943336761922800,1.7089228515625,-0.09644143562316894,-0.011860880723502486,0.02001876961006783
1782943336771907800,1.718907958984375,-0.08925941516458988,-0.008116214302461594,0.006067465079110115
1782943336781892900,1.728892822265625,-0.10302490566670894,0.00009122194740921258,-0.0020909169977996497
1782943336791877600,1.738877685546875,-0.11124971317648887,-0.006110957160964608,-0.0034897098458604885
1782943336801863000,1.74886279296875,-0.10496318025290965,-0.00542765107192099,-0.001249621035181917
1782943336811846700,1.7588466796875,-0.09508534483909606,-0.002807294239383191,0.0081500937391771
1782943336821832000,1.76883203125,-0.10196984365582465,-0.0036841136065311727,0.004483524922491051
1782943336831817000,1.77881689453125,-0.09837971020936966,0.0002558196582831442,0.008433344827080145
1782943336841802000,1.788802001953125,-0.09763093766868114,-0.009501659045182168,-0.0032149799911305307
1782943336851786800,1.798786865234375,-0.08970072919130324,0.0005808868941850959,0.004009135176660493
1782943336861771800,1.808771728515625,-0.09598609307110309,-0.0011820493914186953,0.014243633974459952
1782943336871756800,1.8187568359375,-0.10780746376812457,-0.008213427599240094,0.006062250047875568
1782943336881741800,1.828741943359375,-0.1046650740891695,-0.010420801450405269,0.006898805903294124
1782943336891726800,1.838726806640625,-0.09808043500185012,-0.003397277755476534,0.006520373645494692
1782943336901710800,1.8487109375,-0.10616145012676716,0.0025903452867642044,0.003231013243901543
1782943336911696000,1.85869580078125,-0.09808394213318825,-0.004929912416543811,0.002704468619148247
1782943336921681000,1.868680908203125,-0.0867144068568945,-0.0028749891807325185,0.006472817309875973
1782943336931666000,1.878666015625,-0.10048340449035167,-0.00519811663236469,0.00034462131974287327
1782943336941651000,1.88865087890625,-0.09509820432066916,0.0027824155264534055,0.0008554203860927373
1782943336951635700,1.8986357421875,-0.0956932476043701,-0.0051186399216763675,0.0011142494187923147
1782943336961620700,1.908620849609375,-0.1057195515781641,-0.002527856243494898,0.009056148333963938
1782943336971605800,1.918605712890625,-0.10138298367857933,0.006878032543323934,0.009693473556544631
1782943336981590800,1.9285908203125,-0.09884031345844269,-0.004295450437907129,0.005638955735042691
1782943336991574800,1.93857470703125,-0.10227788669168948,-0.0040006139434874055,0.0055336139307357365
1782943337001559800,1.948559814453125,-0.09718494746685027,-0.0033025304104201494,0.00488268487448804
1782943337011544800,1.958544921875,-0.10377017107605933,-0.00984765947125852,0.006628962286235765
1782943337021529900,1.96852978515625,-0.10646072533428669,-0.012951434172876178,0.012902000974002294
1782943337031515000,1.978514892578125,-0.10391571702659129,-0.009256525177694857,0.004402874601446092
1782943337041500000,1.9885,-0.10885083534121513,-0.0009861614931374787,-0.005777099263831041
1782943337051485000,1.99848486328125,-0.09553484217226504,-0.007040620960202068,-0.0019768986966926605
1782943337061469700,2.0084697265625,-0.0967307739585638,-0.004540931365266442,0.006927808235492557
1782943337071453700,2.01845361328125,-0.10421440771222114,-0.004188373334240168,0.00426467170715332
1782943337081438700,2.028438720703125,-0.09583587094545364,-0.004903316670563072,0.004570641516940668
1782943337091423700,2.038423828125,-0.0949316155821085,0.00395021719681099,0.0006533356424653902
1782943337101409000,2.048408935546875,-0.10705050792098045,0.0008828289828263223,0.007955128289503045
1782943337111394000,2.05839404296875,-0.10046645335555077,-0.008229794212151318,0.006573597103497013
1782943337121378800,2.06837890625,-0.10121113424301147,-0.01360162344360724,0.011371343640889972
1782943337131363800,2.07836376953125,-0.09777063840031623,-0.0039821832376532255,-0.004005290118604898
1782943337141348900,2.088348876953125,-0.10345920543074608,-0.004333754887990654,0.003591905278433114
1782943337151334000,2.098333984375,-0.10899404320418835,-0.005765577789396047,0.004903188806399702
1782943337161318000,2.10831787109375,-0.10196107582747936,-0.0012406477108597754,-0.0033425929927499965
1782943337171303000,2.118302978515625,-0.09238193109929561,-0.011205101962201296,-0.009844019909179769
1782943337181287700,2.12828759765625,-0.1012099651992321,-0.008413206221349537,0.0029171295557171104
1782943337191272700,2.138272705078125,-0.09477496371567248,-0.002608191470708698,-0.0059780743291834365
1782943337201258000,2.148258056640625,-0.1124333700031042,-0.013351119281258433,0.0037950586011400445
1782943337211243000,2.158242919921875,-0.09971475820541381,-0.009880374430771917,0.008433143897680566
1782943337221227800,2.168227783203125,-0.0943254663825035,-0.0053492703397758305,0.0021888015814358367
1782943337231212800,2.178212890625,-0.10435235487818717,-0.0036437815961427983,0.0018562405922450125
1782943337241197800,2.18819775390625,-0.10450140796005725,0.002320131776947528,0.0036533851081272583
1782943337251181800,2.198181884765625,-0.09447685755193233,-0.0016875512281432747,0.006826087726955301
1782943337261166800,2.208166748046875,-0.09626724810004234,-0.008018580880574881,-0.0055274125188123436
1782943337271151900,2.21815185546875,-0.09237783944606781,-0.009770283386111259,0.013756681574578397
1782943337281136600,2.22813671875,-0.0952186158299446,-0.003272372734174132,0.014876260189036837
1782943337291122000,2.238121826171875,-0.09731354228258132,-0.0029839294479228552,-0.001085110089275986
1782943337301107000,2.24810693359375,-0.09895604879260063,-0.00568275834415108,0.0018979197429260237
1782943337311092000,2.258092041015625,-0.0926701003909111,-0.003945394891221076,-0.008056346474541351
1782943337321077000,2.268076904296875,-0.09117372435331345,-0.000030194208864122628,0.004001938250893727
1782943337331061000,2.27806103515625,-0.09581307459175586,-0.002992277151159942,0.0011244648521300405
1782943337341045800,2.288045654296875,-0.10374679020047187,-0.0054148098566569386,-0.00037407117651309815
1782943337351030800,2.29803076171875,-0.09387421548366547,-0.0013947240277193485,0.00022313209823332725
1782943337361015800,2.308015869140625,-0.10090952094793319,0.002731470790505409,0.0011137288289843126
1782943337371000800,2.318000732421875,-0.09986147319972515,-0.002506393330357969,-0.004068254085909575
1782943337380985900,2.32798583984375,-0.09731646489202976,-0.00899076864728704,0.0018151779294945298
1782943337390971000,2.337970947265625,-0.09821545955836772,-0.0013150281213223933,0.007712469506892375
1782943337400956000,2.347955810546875,-0.10060907669663428,-0.006735537066403776,0.008809964153706096
1782943337410941000,2.35794091796875,-0.0967179144769907,-0.0025549999787472188,0.005211017213133163
1782943337420925000,2.367925048828125,-0.09671908352077006,-0.005636398451775312,0.00930656116476748
1782943337430910000,2.377909912109375,-0.10120821163356304,-0.0048879364383406934,0.005664423536439426
1782943337440894700,2.387894775390625,-0.09657119948267937,-0.0024389358510263264,-0.005556465083360672
1782943337450879700,2.397879638671875,-0.098517072853446,-0.007650459954235703,-0.006763973143021576
1782943337460864800,2.40786474609375,-0.09282967486679554,0.0074083217614330345,-0.0001956550028407946
1782943337470849800,2.417849853515625,-0.1021077908217907,-0.0017014701556414364,-0.0006588657675310969
1782943337480835000,2.4278349609375,-0.10899170511662959,-0.006749784787464887,0.007333726721839047
1782943337490819800,2.43781982421875,-0.10016308649480342,-0.013793237025570124,0.009832566933403722
1782943337500809200,2.447809326171875,-0.08459960666000843,0.0005078399242833256,0.00575442620771937
1782943337510793200,2.457793212890625,-0.11198387266993522,0.003524466065410524,-0.0006107751423725858
1782943337520778200,2.4677783203125,-0.10061199930608272,-0.0014010624369606374,0.004509298684564419
1782943337530763300,2.47776318359375,-0.0937286695331335,-0.002594345608446747,-0.005652258174610324
1782943337540748000,2.487748046875,-0.10420271727442741,0.005450557023473084,0.003830435875197872
1782943337550733000,2.497733154296875,-0.1055494557082653,0.00348946781726554,0.008193142863037064
1782943337560718000,2.507718017578125,-0.09343173241317272,-0.0034396555924788115,0.007794603965547866
1782943337570703000,2.517703125,-0.0962777694940567,-0.0037490868678316473,0.006372494173981249
1782943337580688100,2.527688232421875,-0.09044073390364646,-0.004397120714094489,0.010721017372841014
1782943337590673200,2.537673095703125,-0.08969488397240638,-0.005915142327919602,0.0024719202385982495
1782943337600657200,2.5476572265625,-0.09328443289697169,0.004632664769329131,-0.0003777472712099552
1782943337610642200,2.55764208984375,-0.09193301828801631,-0.011145772990398109,-0.00011959409194532781
1782943337620627200,2.567627197265625,-0.10046060813665389,0.00046105990679934616,0.014909797132457606
1782943337630612200,2.5776123046875,-0.1032967083454132,-0.0019224559625610708,0.0035634144028881564
1782943337640597000,2.587596923828125,-0.1134703118354082,-0.007987181095313281,-0.003232593279634602
1782943337650582000,2.59758203125,-0.10404314279854297,-0.007228453416191041,0.005189239206165075
1782943337660567000,2.607567138671875,-0.1037415295034647,-0.0007524440688081085,0.007447872887109406
1782943337670552300,2.61755224609375,-0.101793902567029,0.00022986323311924932,0.004056673245970159
1782943337680537300,2.627537353515625,-0.09146890790760516,-0.00757388758668676,-0.0005767221757210791
1782943337690521300,2.637521240234375,-0.09984802919626236,-0.0040010158022865654,-0.00422237606854178
1782943337700506000,2.647506103515625,-0.08832710275053977,-0.0024352095239795744,-0.0007600611196830868
1782943337710491100,2.6574912109375,-0.09446165998280048,-0.00272513238126412,0.007451663146237842
1782943337720476200,2.66747607421875,-0.09895254166126251,-0.003081252342555672,0.005780044706165791
1782943337730461200,2.677461181640625,-0.09266717778146266,-0.007724000114481895,0.007634253171528689
1782943337740446200,2.6874462890625,-0.10792962884306907,-0.007035542926285415,-0.002208168435608968
1782943337750431000,2.697430908203125,-0.09506313300728797,-0.00809844118375331,-0.0018548249532934276
1782943337760416000,2.707416015625,-0.08728373117744923,-0.01160997470235452,0.017055987981450742
1782943337770401300,2.7174013671875,-0.09746084179878234,-0.009139913060702384,0.010475760207767597
1782943337780385000,2.727385009765625,-0.09386661669909954,-0.005046104408428073,0.008372723513911478
1782943337790370300,2.737370361328125,-0.09401800786852836,0.0021642105628736316,0.002440200792928226
1782943337800355000,2.74735498046875,-0.1112269168227911,-0.007978084473405032,0.008335757070966064
1782943337810340000,2.757340087890625,-0.10254793580472468,-0.010226466188393533,-0.0008504336837213486
1782943337820325000,2.7673251953125,-0.10135492662787436,0.0011666508928872643,0.010005256619188004
1782943337830310100,2.77731005859375,-0.09971066655218601,-0.0013325272453948854,-0.001295684100035578
1782943337840295200,2.787295166015625,-0.09627075523138046,-0.006197521199565381,-0.0009866957826772703
1782943337850280000,2.797280029296875,-0.09462766419947147,-0.0032130802949890493,0.0008472736122552305
1782943337860264000,2.807263916015625,-0.09013736704289912,0.003031129590515047,0.007382680430100299
1782943337870249000,2.8172490234375,-0.09133446787297725,-0.00804159642998129,0.01320956451925449
1782943337880234200,2.827234130859375,-0.10016367101669311,-0.002497059246432036,0.007821327575691974
1782943337890219300,2.83721923828125,-0.10509820480942726,-0.0027606238197535275,0.011717992520937696
1782943337900204300,2.847204345703125,-0.09821370599269866,-0.000265829595644027,0.009813063081912696
1782943337910189000,2.85718896484375,-0.0995586908608675,-0.00363150663645938,0.004192190992832184
1782943337920174000,2.867174072265625,-0.09761223296821117,-0.0003637552784755826,-0.0017424643197329714
1782943337930159000,2.8771591796875,-0.10659341180324554,-0.010601181252300739,-0.008328153719822876
1782943337940144000,2.88714404296875,-0.09641863926947117,-0.0113330574571155,0.005259153504064307
1782943337950128000,2.897128173828125,-0.09387480000555515,-0.00656496627246961,0.005481102858786471
1782943337960113200,2.907113037109375,-0.10449790082871914,-0.008855725824460387,-0.00033470728050451724
1782943337970098000,2.917097900390625,-0.09686813660264014,-0.0036820312472991643,0.002963215453457087
1782943337980083200,2.927083251953125,-0.09207914876043796,-0.004608169648889452,0.0014236806941451503
1782943337990068200,2.937068115234375,-0.09881050284206867,-0.0052994581149891015,0.00546607881959062
1782943338000053200,2.94705322265625,-0.0949181715786457,-0.004619878352992236,0.008198275695880875
1782943338010038000,2.9570380859375,-0.0973147113263607,-0.003945851548947394,0.0016697598431259393
1782943338020023000,2.96702294921875,-0.09597031098008155,-0.0019437727452255784,0.0033728602668503297
1782943338030008000,2.977008056640625,-0.09313011911809443,-0.005579188371822238,0.005860599129088223
1782943338039992000,2.986991943359375,-0.10255904172062873,-0.006558335602283478,0.002367578514711931
1782943338049977000,2.99697705078125,-0.09822422738671302,-0.009541260403208435,-0.0016873137661255896
1782943338059962000,3.006962158203125,-0.1015191772788763,0.001950312083866447,0.0003982420699670911
1782943338069947100,3.016947021484375,-0.10032324549257755,-0.004304583592433482,0.0013312805698020382
1782943338079932200,3.02693212890625,-0.09733049341738223,-0.004152772297896444,0.0036695964574115347
1782943338089917200,3.036917236328125,-0.09328910907208919,0.00116959176864475,0.006050408913032152
1782943338099902200,3.046902099609375,-0.09373568379580974,-0.00525090626552701,0.00285893309507519
1782943338109887200,3.05688720703125,-0.1015145011037588,-0.0026458931325934825,-0.00061414527639281
1782943338119872000,3.0668720703125,-0.09702478846907615,-0.004327836603857577,0.0015702723908703772
1782943338129856000,3.07685595703125,-0.09971709629297255,-0.007045753793045878,-0.0012733855032594874
1782943338139841000,3.086841064453125,-0.10196224487125873,0.0006211458393372594,0.0008570095549803227
1782943338149826000,3.096825927734375,-0.09433364968895912,0.0001257452715188265,-0.0017871071790577842
1782943338159811000,3.10681103515625,-0.1003209074050188,-0.002359860999137163,0.005077928885375149
1782943338169796400,3.11679638671875,-0.10511223333477973,-0.005534527246188372,0.0033182988017098976
1782943338179781000,3.126781005859375,-0.10107201803326606,-0.0062872270433232185,0.005564881285256706
1782943338189766100,3.13676611328125,-0.09239420605897902,-0.0050676038541831074,0.00363773088126909
1782943338199751200,3.146751220703125,-0.10257248572409153,-0.0018368783046491444,0.0022700135914841667
1782943338209736200,3.156736083984375,-0.10945990715026854,-0.005850041202455759,-0.0015950186730595305
1782943338219720200,3.16672021484375,-0.10078034161031246,-0.00048672407101839777,0.011004350659134797
1782943338229705200,3.176705322265625,-0.10092822564840316,0.00035199177544564006,0.005136006615008227
1782943338239690000,3.18668994140625,-0.09838438638448714,-0.0005558255181647837,0.007550602609221823
1782943338249675000,3.196675048828125,-0.1001771150201559,-0.0066810486664995545,-0.001675107305101119
1782943338259660300,3.206660400390625,-0.09494155245423316,-0.009894786548614502,-0.004630390613852069
1782943338269645300,3.216645263671875,-0.09808920283019543,-0.010714615031518042,-0.0006969555884832516
1782943338279630000,3.226630126953125,-0.08911211564838886,-0.0042198827173560854,-0.0004816414705244824
1782943338289615000,3.236614990234375,-0.09599252281188965,-0.010791954584047197,-0.0012493744400097057
1782943338299600100,3.24660009765625,-0.11229951449036597,-0.003024243192002177,-0.0021441815549973395
1782943338309584100,3.256584228515625,-0.09449088607728481,0.00034232889795675873,0.00008033522721379995
1782943338319569200,3.266569091796875,-0.09658522800803183,-0.0001546973713673651,-0.0046020002030069005
1782943338329554200,3.27655419921875,-0.09733400054872035,0.0039024690649472173,-0.0043772013040725135
1782943338339539000,3.2865390625,-0.09343699311017989,-0.004903225339017808,0.002766459905495867
1782943338349524000,3.29652392578125,-0.10450842222273349,0.0014563910870812832,0.0008548815299756824
1782943338359509200,3.30650927734375,-0.10465864434838294,0.0022161234132014214,0.0007141807179199531
1782943338369494300,3.316494384765625,-0.10181552987694739,-0.0007829305386170745,0.008751658095209858
1782943338379479300,3.326479248046875,-0.09882336232364178,0.00792385180182755,0.0019223920304793864
1782943338389463300,3.33646337890625,-0.1151344456553459,-0.0019131036123260854,-0.003818681505322456
1782943338399448000,3.346447998046875,-0.10017068527936934,-0.003547098022326827,0.0034992357260314744
1782943338409433000,3.35643310546875,-0.09253975200951099,0.0019761589111760257,0.005354065245902166
1782943338419418000,3.366418212890625,-0.10705869122743605,-0.005369180616643279,-0.004710899371001869
1782943338429403100,3.376403076171875,-0.10421557675600052,-0.0018000351592898367,-0.007056603980623185
1782943338439388200,3.38638818359375,-0.10316811352968215,-0.0031361426012590527,-0.00011627419027499853
1782943338449373200,3.396373291015625,-0.08655775499045848,-0.002702792685292661,0.004187158624688163
1782943338459358200,3.406358154296875,-0.09987725529074669,-0.006955865286197513,-0.0006631629167357459
1782943338469343200,3.41634326171875,-0.10196984365582465,-0.00436256085736677,0.009094028092361987
1782943338479328300,3.426328369140625,-0.09852408711612223,-0.01095028695091605,0.00762121559344232
1782943338489312300,3.436312255859375,-0.09792670574486255,-0.007154474864527582,0.005114895328320563
1782943338499293400,3.44629345703125,-0.10600479826033114,-0.007859755323361604,0.0023703549936879426
1782943338509278200,3.4562783203125,-0.10705576861798763,-0.0032365342358127236,0.0024464159045834094
1782943338519263200,3.46626318359375,-0.09732932437360287,-0.00671747168675065,0.015052986729121766
1782943338529248300,3.476248291015625,-0.09567980360090732,-0.0038719277962110934,0.0027718028008937834
1782943338539233500,3.486233642578125,-0.10331073687076568,-0.0048130263049155474,-0.003386998390057124
1782943338549218300,3.49621826171875,-0.10226561173200607,-0.012067472678888589,0.004293724271701649
1782943338559203300,3.506203369140625,-0.09972586412131786,-0.010859905253723262,0.0006063227295409888
1782943338569188400,3.516188232421875,-0.10197568887472153,-0.003921977483015507,0.0009200420209439471
1782943338579172400,3.52617236328125,-0.0974888988494873,-0.0024874694341793656,0.0008503743182169273
1782943338589157400,3.536157470703125,-0.103623456081748,-0.006531630258448422,0.006156527035473845
1782943338599142400,3.546142333984375,-0.09240355840921402,-0.004757569790631532,0.0044038564155576745
1782943338609127200,3.556127197265625,-0.10168167436420916,-0.0012794636175967752,0.004153260921663605
1782943338619112200,3.5661123046875,-0.101833065533638,-0.002399206628836691,0.0008052611014340073
1782943338629097500,3.576097412109375,-0.09105857354104518,-0.008418211190029978,0.0035969285134226084
1782943338639082500,3.58608251953125,-0.09838789351582526,-0.0005883760808967054,0.004544685091776773
1782943338649067500,3.596067626953125,-0.10228197834491728,0.008539974406175314,0.005612930811219849
1782943338659052300,3.60605224609375,-0.09404840300679207,-0.0013285634563304483,0.0017161745344288647
1782943338669036300,3.616036376953125,-0.1069178214520216,-0.0116452834777534,-0.005015467241569422
1782943338679021300,3.626021240234375,-0.10556874493062496,-0.004267521251365542,0.0008671473565045744
1782943338689006300,3.63600634765625,-0.10047989735901355,0.0030165713422000404,-0.0017945096008013933
1782943338698991400,3.645991455078125,-0.09853343946635723,-0.000766636990942061,0.004206137319793924
1782943338708976400,3.655976318359375,-0.10646773959696293,0.0008613478033803403,0.007786155797610991
1782943338718961200,3.665961181640625,-0.11185761594176291,-0.00410913408556953,0.010456964175752363
1782943338728946400,3.675946533203125,-0.0897159267604351,-0.003476991928182542,0.003024033129448071
1782943338738931500,3.685931396484375,-0.10393266816139221,-0.0049130708795972165,0.003926174167520367
1782943338748916500,3.69591650390625,-0.10573124201595782,-0.005270140688959509,0.0019117838714970276
1782943338758900500,3.705900390625,-0.10034195019304752,-0.004613686074223369,0.0036544399874750525
1782943338768885200,3.71588525390625,-0.10153963554501533,-0.004598652901872992,0.008454469813499598
1782943338778870300,3.725870361328125,-0.1084212117522955,-0.005270542547758669,0.01144977917196229
1782943338788855300,3.735855224609375,-0.09704583125710486,0.0032901275865733623,-0.0034082603737944734
1782943338798840300,3.74584033203125,-0.1054272906333208,-0.004443681535869837,0.003027814255421981
1782943338808825300,3.755825439453125,-0.09989712903499602,0.005200253790523857,0.0010390835570404306
1782943338818810000,3.76581005859375,-0.10707798044979572,-0.0008401588848792016,0.0018472033358411862
1782943338828795400,3.77579541015625,-0.11156769308447838,-0.004836315848957747,0.0029441317270742728
1782943338838780400,3.785780517578125,-0.10214461570084095,0.0002518558692187071,0.0028319446234498172
1782943338848764400,3.795764404296875,-0.0888274534881115,0.000008311170618981123,-0.001410131659405306
1782943338858749400,3.80574951171875,-0.08718143984675407,-0.004633194492291659,0.0019158663915703072
1782943338868734500,3.815734375,-0.09406301605403422,0.0006825389040634036,0.004564759765425697
1782943338878719200,3.82571923828125,-0.09331716612279414,-0.008047569513041525,0.0028171580462716516
1782943338888704300,3.835704345703125,-0.09840835178196429,-0.002981426963582635,0.001359821677696891
1782943338898689300,3.845689208984375,-0.10020458754897117,0.0006398140071891248,0.001761296884366311
1782943338908674300,3.85567431640625,-0.1027478422909975,-0.0019306027363985775,0.002010924263880588
1782943338918659300,3.865659423828125,-0.09407061483860016,-0.001976944362465292,-0.0014555736697511746
1782943338928644400,3.875644287109375,-0.10334814627170562,-0.005259929822199047,0.003346433484228328
1782943338938628400,3.88562841796875,-0.10215046091973781,-0.0008994147914461791,0.0025551324094878506
1782943338948613400,3.89561328125,-0.09856149651706218,-0.008126205973513424,0.0010967457281425594
1782943338958598400,3.905598388671875,-0.10739128418266773,-0.00105705303857103,0.002557849522959441
1782943338968583400,3.91558349609375,-0.09990998851656913,-0.006568966594152152,-0.0006165335963014513
1782943338978568200,3.925568115234375,-0.09900748671889305,0.002196158337406814,-0.002194518936169334
1782943338988553200,3.93555322265625,-0.09796002349257468,0.0006959463749080896,0.00011799578990321606
1782943338998538200,3.945538330078125,-0.10604337670505046,-0.005316427516099065,0.011830325755034572
1782943339008523300,3.955523193359375,-0.10634615904390811,0.0003398081473074853,0.00040016459899488836
1782943339018508500,3.965508544921875,-0.10589607718884944,-0.0031204518417827782,-0.01264376559634693
1782943339028492500,3.975492431640625,-0.1033534069687128,-0.0034952034383080896,0.005605094564636238
1782943339038477300,3.985477294921875,-0.0999111575603485,0.0007985482328571379,-0.0037288980297511443
1782943339048462300,3.99546240234375,-0.101109427434206,0.0006925853740423917,-0.0030699409306747835
1782943339058444300,4.0054443359375,-0.10111059647798537,0.0007139204230159521,-0.0031355489462148397
1782943339068429300,4.01542919921875,-0.09722060330212115,-0.006732285663392394,0.0038792297532549125
1782943339078414300,4.025414306640625,-0.10111527265310287,-0.001637739003356546,0.0018822746492223813
1782943339088399400,4.0353994140625,-0.09348784651458263,-0.002379223286733031,0.004334321143571287
1782943339098383400,4.04538330078125,-0.09827566531300544,-0.004962554310820997,0.0017374456513207404
1782943339108368400,4.055368408203125,-0.10441139158904551,-0.003864822201989591,0.004538387781730852
1782943339118353400,4.065353515625,-0.1020154363632202,0.001888115301541984,0.0076809692569309845
1782943339128338400,4.07533837890625,-0.10425941589772701,0.0031923845668323336,0.0059361348835984245
1782943339138323200,4.0853232421875,-0.10471008227467536,0.0013155943769030272,-0.0002727022944251075
1782943339148308200,4.09530810546875,-0.09857318695485591,-0.0013119411150924862,-0.004235308615351096
1782943339158293200,4.105293212890625,-0.10305822341442107,-0.010300463006366044,0.0030417286163428796
1782943339168278500,4.115278564453125,-0.11053718099296092,-0.010284388654399663,-0.0029719695820705962
1782943339178263600,4.125263671875,-0.09826806652843952,-0.0011032668004743755,-0.003896509681618772
1782943339188247600,4.13524755859375,-0.10320844554007053,-0.0020822861667722462,-0.012812107900576665
1782943339198232300,4.145232421875,-0.09632511576712131,-0.0064190184631384905,-0.0026472631057724355
1782943339208217300,4.15521728515625,-0.09048632661104201,-0.0048977271799929434,0.011718047319864854
1782943339218202400,4.165202392578125,-0.10649696569144725,-0.0019049020395614205,0.010260957546462304
1782943339228187400,4.1751875,-0.1008130748361349,-0.0053889264967292546,0.005127101789345033
1782943339238172400,4.18517236328125,-0.1033580831438303,0.0014186894251964986,-0.011067314626439473
1782943339248157200,4.1951572265625,-0.11502923171520232,0.0037836467245593664,-0.0034734847968444227
1782943339258142200,4.20514208984375,-0.08908815025091171,0.016476539559103547,-0.028606852907710707
1782943339268127500,4.21512744140625,-0.3153244250446558,-0.07829515448724851,-0.7096670764204114
1782943339278111500,4.225111572265625,-0.47136488158404827,-0.07120545195462182,0.28175440133819357
1782943339288096500,4.235096435546875,0.41007308527529235,0.14654287088112905,0.803785987380147
1782943339298081300,4.245081298828125,0.38228959081470965,-0.01904602472092956,-0.47403026486840094
1782943339308066300,4.25506640625,-0.2340425646305084,-0.007140537670720368,0.08476425916980952
1782943339318051300,4.26505126953125,-0.4619494029849767,-0.06911326544834301,0.09363191289408132
1782943339328036400,4.275036376953125,0.00821603968143463,0.07490257117319851,-0.058968463361146854
1782943339338021400,4.285021484375,-0.15039923578202724,-0.026068854296114295,0.029989840831863693
1782943339348006100,4.295006103515625,-0.06255845524370669,0.0034769553955644366,0.0068477652692236005
1782943339357991400,4.304991455078125,-0.11731763491332531,-0.015337689988594501,0.0452435240651248
1782943339367976400,4.3149765625,-0.09068272596597671,0.008887783196847885,-0.004562599774380214
1782943339377960400,4.32496044921875,-0.06464110673666,0.008431856122892349,-0.0158646684381878
1782943339387945500,4.334945556640625,-0.1131260284423828,-0.012175864956807345,-0.004283189177955501
1782943339397930500,4.344930419921875,-0.09352233330607414,-0.00038770240964367984,-0.014185802839999087
1782943339407915300,4.354915283203125,-0.10145312630534171,-0.005336867515929043,0.0040198438003426415
1782943339417900300,4.364900390625,-0.09261983150839805,-0.00594537306940183,0.008139777841139584
1782943339427885300,4.37488525390625,-0.12433832733035087,-0.01910237628435716,0.01392559470096603
1782943339437870300,4.384870361328125,-0.10234919836223125,-0.008435819911956787,0.01108313781665638
1782943339447855400,4.39485546875,-0.06718260791301726,-0.007442004835326224,-0.014477465563220902
1782943339457840400,4.40484033203125,-0.13661562510132788,-0.005813599915895611,0.006292802834161557
1782943339467824400,4.414824462890625,-0.07002338429689407,0.0076715758075006305,-0.015355741668515837
1782943339477809400,4.424809326171875,-0.11341887390911579,-0.0029226459810510275,0.005283561859535984
1782943339487794400,4.43479443359375,-0.09696166010499,0.0031756891603581605,-0.011317362131061963
1782943339497783000,4.444782958984375,-0.10235036740601063,-0.002890332880336791,0.003508715940429829
1782943339507767800,4.454767822265625,-0.09756254860758781,-0.001984652744885534,0.0029669463470811024
1782943339517752800,4.4647529296875,-0.08993103081583977,0.006109441057313233,0.0029881535318912935
1782943339527737900,4.47473779296875,-0.09487140982747078,0.000054853726085275405,0.006318631395162083
1782943339537723100,4.48472314453125,-0.09516951599121093,0.006739427790232002,0.002605501756700687
1782943339547708200,4.494708251953125,-0.11192951213419437,-0.0007231083764694631,0.005077170833549462
1782943339557692200,4.504692138671875,-0.09816285258829593,-0.005813873910531401,-0.005521206540311687
1782943339567677000,4.514677001953125,-0.09726736505329608,-0.0037457989322021604,-0.002396375350933522
1782943339577662000,4.524661865234375,-0.09577098901569843,-0.0007468180456198752,0.003923543819016777
1782943339587647000,4.53464697265625,-0.10789455752968788,-0.0009278189020231366,-0.0022222334935795515
1782943339597632000,4.544632080078125,-0.10505436566770077,-0.0012649967008270323,0.004491205905447714
1782943339607617000,4.554616943359375,-0.10475450593829154,-0.004730773115251213,-0.0016892271619988605
1782943339617601800,4.564601806640625,-0.1083423012971878,-0.0009840243349783122,0.004191871332423761
1782943339627587000,4.574587158203125,-0.1029611927807331,-0.002240855995658785,0.00027205840703099966
1782943339637572000,4.584572021484375,-0.09473287813961505,0.003686871819198131,0.00539886793543119
1782943339647556000,4.59455615234375,-0.09772563021481037,0.0008169606723822652,0.00472427030922845
1782943339657541000,4.604541015625,-0.10655307979285716,0.0022636523493565616,0.00019341737998183816
1782943339667526000,4.61452587890625,-0.09772504569292068,-0.0011513071932829917,0.004371050124499015
1782943339677511000,4.624510986328125,-0.09458382505774497,0.001011478597484529,0.003700475652865134
1782943339687496000,4.634495849609375,-0.09189268627762794,-0.0017445969113148749,-0.0043384127967990935
1782943339697481000,4.64448095703125,-0.10012275448441504,-0.0006661722911521792,-0.0053990962642943485
1782943339707466000,4.654466064453125,-0.10596095911860465,-0.0013275770756416023,-0.0021267600627383216
1782943339717450800,4.66445068359375,-0.10162029956579208,-0.0022660817684605717,-0.0002287261553807184
1782943339727436000,4.67443603515625,-0.10071896681189536,-0.00841532511319965,-0.013466726751253008
1782943339737421000,4.684421142578125,-0.10131517913937568,-0.0020738653982989488,0.004911545642791316
1782943339747405000,4.694405029296875,-0.10191431407630443,-0.004587346056569367,0.005234895845642313
1782943339757390000,4.70439013671875,-0.10041852256059645,-0.0012887063699774444,0.001164828828559257
1782943339767375000,4.714375,-0.09862404035925865,-0.001962166918441653,0.006328298839228227
1782943339777360000,4.72435986328125,-0.10490706615149974,-0.0014311470479704438,-0.002659770960896276
1782943339787345000,4.734344970703125,-0.10415654004514217,-0.0019486681160517036,0.01025159149649553
1782943339797330000,4.744329833984375,-0.09877250891923904,-0.0031663185438141226,-0.0027310689317062496
1782943339807315000,4.75431494140625,-0.09921966816484927,0.002780461031384766,-0.0063436562385642895
1782943339817300000,4.764300048828125,-0.10505670375525951,0.0016306334091350436,0.0036226611763006075
1782943339827285000,4.774284912109375,-0.09862053322792053,-0.0015692951433360575,-0.003640457127895206
1782943339837269000,4.78426904296875,-0.09443068032264709,-0.001741984829120338,-0.001093891617353074
1782943339847254000,4.79425390625,-0.1028092170894146,-0.007010700745973736,-0.006026512014213949
1782943339857239000,4.804239013671875,-0.09846972658038139,-0.002527545716241002,0.004971239940775558
1782943339867224000,4.81422412109375,-0.09697159697711467,0.002370400659460574,0.006223235596134327
1782943339877208800,4.824208740234375,-0.10430267051756381,-0.0013924772717058657,0.0005808503615669906
1782943339887193900,4.83419384765625,-0.10505085853636265,0.0014767214890569447,-0.005214056270301808
1782943339897179000,4.844178955078125,-0.09951426719725132,-0.0018357092608697711,-0.005459708444308489
1782943339907164000,4.854163818359375,-0.10594868415892124,-0.006788929487764835,0.0004667772615328431
1782943339917149200,4.864149169921875,-0.10624912841022013,-0.0009021547378040849,0.005541514109401032
1782943339927133200,4.87413330078125,-0.09532850594520569,-0.006029854748770594,0.00011504578099120407
1782943339937118000,4.884117919921875,-0.0903916340649128,0.002528641694784164,-0.0003493888264056295
1782943339947103000,4.89410302734375,-0.0975719009578228,0.0009265585266984999,0.00047348556353244927
1782943339957088000,4.904087890625,-0.10610416698157786,-0.00030433497512713075,-0.0009490215202560648
1782943339967073000,4.914072998046875,-0.09577683423459529,-0.004283942663203925,0.0052657111090142275
1782943339977058000,4.92405810546875,-0.10236381140947341,0.0012354418127797544,-0.0035396271019242703
1782943339987042800,4.934042724609375,-0.10490998876094818,0.001208024082891643,0.001625911568244919
1782943339997027800,4.94402783203125,-0.1007213048994541,-0.0033808015447109934,-0.008120739780529402
1782943340007013000,4.95401318359375,-0.08590484403967857,-0.0007762085368856787,0.000876481440430507
1782943340016996900,4.963996826171875,-0.09503098430335521,0.0007858531480655073,-0.0018120132914511485
1782943340026982100,4.973982177734375,-0.09712591075599193,0.000327039997279644,-0.0033221986586926505
1782943340036967000,4.983966796875,-0.09667465985715389,-0.005444748337194323,-0.007691728112963028
1782943340046952000,4.993951904296875,-0.09457797983884811,-0.0007374656953848898,0.006974971845466643
1782943340056937000,5.00393701171875,-0.10175824673175811,0.0030429661587812007,-0.0020325196077581494
1782943340066922000,5.013921875,-0.10325170015990734,-0.00007070888234302402,0.004895864016469568
1782943340076907000,5.023906982421875,-0.10085983658730983,-0.007436451877374201,0.005389922010572627
1782943340086891800,5.033891845703125,-0.10400456435382366,-0.0029733715212903913,0.004466984779643826
1782943340096876800,5.043876708984375,-0.09652619129717349,-0.0025274361183866855,0.00014126021777046845
1782943340106860800,5.05386083984375,-0.10400982505083084,-0.003990256946254521,0.004306770982942544
1782943340116846000,5.06384619140625,-0.10655191074907779,-0.004815108664147556,0.0004938753310125321
1782943340126831000,5.0738310546875,-0.09652502225339413,-0.0038351577160879967,-0.006129844524525105
1782943340136816000,5.083816162109375,-0.09562661210894584,0.005728862508200109,0.008887659899261779
1782943340146801000,5.09380078125,-0.09517828381955623,-0.008765983448084443,0.0022293025551829485
1782943340156786000,5.103785888671875,-0.10625205101966857,-0.007973499629832804,-0.00413719570285175
1782943340166771000,5.11377099609375,-0.09951835885047912,0.004131017123814672,0.00859718448612839
1782943340176756000,5.123755859375,-0.10191022242307662,-0.006581131955981254,0.006986538985674269
1782943340186741000,5.133740966796875,-0.10460311476886272,0.0011878032787702977,0.0000678821710171178
1782943340196725000,5.14372509765625,-0.10146130961179732,0.005221661904733628,-0.004359053726028651
1782943340206709800,5.153709716796875,-0.09877075535356998,-0.005128887321054935,-0.00028471239262726155
1782943340216695000,5.163695068359375,-0.10056757564246654,-0.003293780848383903,0.00040229262399952854
1782943340226680000,5.17368017578125,-0.10730009876787662,-0.00036201997911557555,0.006460460151801817
1782943340236665000,5.1836650390625,-0.10505319662392139,0.008355028027016669,-0.004282065799948759
1782943340246649900,5.19364990234375,-0.09577566519081591,-0.005702887816727161,0.004658918022015132
1782943340256635000,5.203634765625,-0.10714987664222717,-0.001764762916509062,-0.0018073462494881823
1782943340266620000,5.213619873046875,-0.09727554835975169,0.0018952208957634866,-0.009324311450589448
1782943340276605000,5.22360498046875,-0.10400865600705146,-0.0071085898961871855,0.00738334258380346
1782943340286590000,5.23358984375,-0.10595745198726654,-0.004565810078196227,-0.004388887175288982
1782943340296574000,5.243573974609375,-0.09308978710770606,-0.0006311375103890895,-0.0030985551038058474
1782943340306559000,5.25355908203125,-0.10386252553462981,0.0045458815350197255,0.009136848887358792
1782943340316544000,5.2635439453125,-0.08919687132239341,-0.009715703654661774,0.001376229389803484
1782943340326529000,5.273529052734375,-0.1007172132462263,-0.0011289674973115325,0.004947475472697988
1782943340336514000,5.28351416015625,-0.11193944900631904,0.00047874169396236536,-0.005315742529509589
1782943340346499000,5.2934990234375,-0.0969745195865631,-0.004834507484361529,-0.0024899536522105335
1782943340356483800,5.30348388671875,-0.10056874468624591,0.0024734043762087822,-0.005323071886016987
1782943340366468900,5.31346875,-0.0969791957616806,-0.004053111315704882,-0.006381645594816654
1782943340376454000,5.323453857421875,-0.10415887813270092,-0.006560509293060749,-0.005085897562699392
1782943340386438000,5.33343798828125,-0.097724461171031,0.004650310023874044,0.0012099466119194402
1782943340396423000,5.3434228515625,-0.09533142855465411,0.0017072605756111442,0.003390953045967035
1782943340406408200,5.353408203125,-0.0962298386991024,0.0008371449438855052,-0.003127173843514174
1782943340416393000,5.36339306640625,-0.10042027612626551,0.006677632866706699,0.00025154534196481106
1782943340426378000,5.3733779296875,-0.098918054869771,-0.004468267987854779,0.007832250828505494
1782943340436363000,5.383363037109375,-0.1013099184423685,-0.005460274699889123,0.0006966222283430397
1782943340446348000,5.39334814453125,-0.09442308153808117,-0.003370901205204427,-0.007886967557272874
1782943340456332800,5.403332763671875,-0.09980769718587398,0.00014629486920312047,-0.007049064561561681
1782943340466317800,5.41331787109375,-0.09516600885987281,-0.001302004242967814,-0.0005230329268379137
1782943340476301800,5.4233017578125,-0.09367080186605453,-0.004127126399986446,0.0021682748166378584
1782943340486286800,5.433286865234375,-0.1123772559016943,-0.007934208799060434,-0.00290365815279074
1782943340496272100,5.443272216796875,-0.10339958419799804,0.000908858473226428,0.005817093347501941
1782943340506252500,5.45325244140625,-0.09996084192097186,-0.00029874548455700276,-0.0016753995660459622
1782943340516237800,5.46323779296875,-0.10295067138671875,0.008276957822125404,-0.01052904303127434
1782943340526222600,5.47322265625,-0.09995850383341312,-0.0024586451984941957,-0.007016395267820916
1782943340536207600,5.48320751953125,-0.10130816487669944,0.003932279681321233,-0.002198724753828719
1782943340546192600,5.493192626953125,-0.10280746352374553,-0.0019237894031219184,-0.0035100219815270973
1782943340556177700,5.503177734375,-0.10206102907061576,-0.00047041225703433156,-0.011228921229206025
1782943340566161700,5.51316162109375,-0.09831950445473193,-0.012639336016401648,0.006874685242190025
1782943340576146700,5.523146728515625,-0.09831891993284225,-0.005765961381886154,-0.0028795877240365367
1782943340586131500,5.53313134765625,-0.09787176068723201,0.0005751512731425464,-0.00029601467135362324
1782943340596116500,5.543116455078125,-0.0975719009578228,-0.00842652236064896,0.007176531432708725
1782943340606101800,5.553101806640625,-0.09278057502806186,-0.0024319581209681926,-0.0033013978992588815
1782943340616086800,5.563086669921875,-0.10205810646116734,0.0028156784752383828,-0.0019796477762050926
1782943340626071800,5.57307177734375,-0.10714753855466842,-0.0031208902332000433,-0.0026207860908005385
1782943340636056600,5.583056640625,-0.10579846203327178,-0.0011254786322824656,0.0012599551995284854
1782943340646041600,5.59304150390625,-0.10789280396401882,0.0020009645588696004,-0.0019425763019826263
1782943340656026600,5.603026611328125,-0.10924129596352576,-0.006329422217234969,0.00118201285880059
1782943340666010600,5.6130107421875,-0.09158581228554248,0.004497822875902056,0.0011945709462743252
1782943340675995600,5.62299560546875,-0.10086451276242732,0.001124455718975514,0.0021152477214578537
1782943340685980700,5.632980712890625,-0.1007172132462263,-0.008539042824413626,-0.0008499359267996623
1782943340695965400,5.64296533203125,-0.10056640659868717,-0.00437295438721776,0.004652520247269421
1782943340705950700,5.65295068359375,-0.09398235203325749,-0.0003363740812055766,-0.003792697680694982
1782943340715935700,5.662935791015625,-0.09622866965532302,0.00153643405335024,-0.003327048363746144
1782943340725920800,5.672920654296875,-0.08740063555538653,0.0024495303102768954,0.004324690232123248
1782943340735905500,5.682905517578125,-0.10640519575476645,0.0015643997725099325,0.007645235789846628
1782943340745890600,5.692890625,-0.1034101055920124,-0.002428962446283549,-0.0015278854207135737
1782943340755874600,5.70287451171875,-0.09368307682573795,0.002187025182880461,-0.001455605635792017
1782943340765859600,5.712859619140625,-0.09892156200110912,-0.00421073129652068,-0.004207635157136246
1782943340775844600,5.7228447265625,-0.10819675534665583,-0.00621365035045892,-0.006000085231591947
1782943340785829600,5.73282958984375,-0.09936930576860904,-0.003916077465191483,-0.0033092706784605976
1782943340795814700,5.742814697265625,-0.09682546650469302,0.0019167751404456793,-0.007055142675898969
1782943340805799700,5.752799560546875,-0.09921908364295959,-0.0009647168463096022,0.002764984901039861
1782943340815784700,5.76278466796875,-0.09727262575030327,0.0007807020489126443,-0.003399346414976753
1782943340825769700,5.772769775390625,-0.10849836864173412,0.0038882030775770544,-0.0019667563285911457
1782943340835754800,5.782754638671875,-0.09997253235876559,-0.0004830890755169093,-0.0019294382591964676
1782943340845738800,5.79273876953125,-0.1016150388687849,-0.0030123518248088657,-0.009319457178958691
1782943340855723500,5.8027236328125,-0.09622866965532302,0.000902830591239035,-0.003856342068011872
1782943340865708500,5.81270849609375,-0.10311258395016193,-0.0019242643271572886,-0.011505550780077464
1782943340875693600,5.822693603515625,-0.09563128828406334,-0.003371467460785061,0.001974405345506966
1782943340885678600,5.8326787109375,-0.09219196148514747,-0.004173157498799264,0.010418052370892838
1782943340895663600,5.84266357421875,-0.10206862785518168,-0.010429825007077306,0.0010163420022698119
1782943340905648600,5.852648681640625,-0.11119652168452739,0.0039586562315933405,-0.00376257653706707
1782943340915633700,5.862633544921875,-0.10222586424350738,0.003513049622252583,-0.00038498072959482666
1782943340925618700,5.87261865234375,-0.08756196359694003,0.0047216216944158075,0.0010577014925424008
1782943340935603700,5.882603759765625,-0.1001291842252016,0.0025616306489333507,0.0040488826651591805
1782943340945587700,5.892587646484375,-0.10551379987299442,-0.0018567703152075408,-0.005886231327266432
1782943340955572500,5.902572509765625,-0.096834818854928,-0.0075113802771084,-0.004343216836079955
1782943340965557500,5.9125576171875,-0.09189560888707637,-0.0038490583772771056,0.0036016183882718903
1782943340975542500,5.92254248046875,-0.08830021474361419,-0.0037395701208151875,0.0023652860929258166
1782943340985527600,5.932527587890625,-0.09413198963701724,-0.012441785883996635,0.00007290540600661188
1782943340995512800,5.942512939453125,-0.10250935736000537,-0.012397544883470982,-0.0019078931476688011
1782943341005497600,5.95249755859375,-0.10130758035480976,-0.0025900895584374663,-0.00011852551286574452
1782943341015482600,5.962482666015625,-0.10549743326008319,-0.0015343699604272842,-0.001981803200673312
1782943341025467600,5.972467529296875,-0.1108867250829935,-0.00622303923331201,-0.00257581900449004
1782943341035451600,5.98245166015625,-0.09158172063231468,-0.001963299429602921,-0.003786062443931587
1782943341045436700,5.992436767578125,-0.10310732325315475,-0.005555405637435615,-0.0018118717275559901
1782943341055421700,6.002421630859375,-0.10654781909584998,0.0033913046724162992,-0.0014382480756146832
1782943341065406500,6.012406494140625,-0.0953232452481985,-0.005506451929174363,0.006148083434114232
1782943341075391500,6.0223916015625,-0.10190613076984882,-0.0007767930587753653,0.008228931129048577
1782943341085376800,6.032376708984375,-0.10175649316608905,0.0023461064684204757,-0.003092303459532559
1782943341095361800,6.04236181640625,-0.09651800799071789,-0.0027807167597115037,-0.010783022358920424
1782943341105346600,6.0523466796875,-0.11177812096476554,-0.007244217240903526,0.005827916135615669
1782943341115331600,6.06233154296875,-0.09068097240030765,0.002866422281786799,0.0005989933730335906
1782943341125315600,6.072315673828125,-0.09382453112304211,-0.001276066084112972,-0.00864761776542291
1782943341135300600,6.082300537109375,-0.09771744690835475,0.004511668738164007,-0.0063621052107075225
1782943341145285600,6.09228564453125,-0.10295359399616717,-0.0025727000322192904,-0.006877050729212351
1782943341155270700,6.102270751953125,-0.09996201096475124,0.000296188201289624,0.008392268464597874
1782943341165255400,6.11225537109375,-0.08933832561969757,-0.0017768917457200587,0.00782331860337872
1782943341175240400,6.122240478515625,-0.09801496855020522,-0.004275284432712942,0.005673853518487885
1782943341185225700,6.132225830078125,-0.09128361446857453,-0.00028511881800368427,0.006807967548375017
1782943341195210800,6.142210693359375,-0.10026128617227077,-0.000915251681394875,-0.0001759821879910305
1782943341205195800,6.15219580078125,-0.10639759697020053,-0.006091010351479053,-0.0019387814762769266
1782943341215180500,6.1621806640625,-0.10056114590167999,-0.0029476708244532343,0.002732840763684362
1782943341225164500,6.17216455078125,-0.0992138229459524,-0.004138195783272385,-0.003439313099184073
1782943341235149600,6.182149658203125,-0.09607143326699732,0.0003455255020409822,-0.0006170587526867165
1782943341245134600,6.192134521484375,-0.10415303291380405,0.0035191688357852397,0.00040584542111027984
1782943341255119600,6.20211962890625,-0.1034101055920124,-0.006598868542071431,-0.00023050255393609404
1782943341265104600,6.212104736328125,-0.09189210175573825,0.003739478789269924,-0.0003759069405728951
1782943341275089700,6.222089599609375,-0.10625789623856544,-0.0024087964410893616,0.0007644769998965784
1782943341285074700,6.23207470703125,-0.09712941788733005,0.0012857289616018534,-0.007299618956260382
1782943341295059700,6.242059814453125,-0.09907879838943481,-0.004435096370615065,-0.0024989132768008858
1782943341305044700,6.252044677734375,-0.09878478387892245,-0.00008409808687865734,0.001703840209241025
1782943341315028700,6.26202880859375,-0.10028817417919635,0.004316219231300056,0.0037287244998151434
1782943341325013800,6.272013671875,-0.10358604668080806,0.0032704365054145455,-0.002869943112856708
1782943341334998500,6.28199853515625,-0.1005997243463993,-0.008549619017355143,0.0015512845626100896
1782943341344983600,6.291983642578125,-0.09910568639636039,0.010914722447190434,0.002813623515469953
1782943341354968600,6.301968505859375,-0.10045827004909515,0.004954864194709807,-0.002618183141760528
1782943341364953600,6.31195361328125,-0.11871581127345561,-0.001877813103236258,-0.0012491963434964417
1782943341374938600,6.321938720703125,-0.10869301443099975,-0.004168262127973139,-0.0027227166618919
1782943341384923600,6.331923583984375,-0.1024123267263174,-0.00597352145165205,-0.0014824753764085472
1782943341394908700,6.34190869140625,-0.10436170722842215,0.0012000417058356107,0.009663302180566824
1782943341404893700,6.351893798828125,-0.09553718025982379,0.0068269599432125684,-0.004887059655506163
1782943341414877700,6.361877685546875,-0.10107844777405262,-0.0012618914282880723,-0.0046305230445927
1782943341424862700,6.37186279296875,-0.10078326421976089,-0.006740615100320428,0.0027121039363322778
1782943341434847500,6.381847412109375,-0.09689794721901417,0.0020457170160487295,-0.012280882534128613
1782943341444832500,6.39183251953125,-0.11680208660662174,0.007747618452087044,0.005334506595483981
1782943341454817500,6.401817626953125,-0.11216916610896586,-0.002568498781137168,-0.005699339586193673
1782943341464802800,6.411802734375,-0.10169687193334102,-0.002632394330203533,0.0034916004088474434
1782943341474787800,6.421787841796875,-0.11471358989477157,-0.006434179499652236,0.006898819603025913
1782943341484772600,6.431772705078125,-0.09630290393531322,-0.003865023131389171,-0.0004989670646609738
1782943341494757600,6.441757568359375,-0.1111135195761919,-0.0020084537455812095,0.00029888704845216124
1782943341504746000,6.45174609375,-0.09240765006244182,0.0030342165967449544,0.003601294161286205
1782943341514731000,6.46173095703125,-0.09973930812478064,-0.001625135250110179,-0.0012227832606062292
1782943341524715800,6.4717158203125,-0.1001858828485012,-0.009919701794162392,-0.004653721257089637
1782943341534700800,6.48170068359375,-0.1043728131443262,-0.0020147921548224986,0.000021038221451453862
1782943341544685800,6.491685791015625,-0.10121814850568771,0.003592142740450799,-0.003621451033325866
1782943341554670800,6.5016708984375,-0.10299977122545241,-0.004697181372903287,0.003229488007095642
1782943341564655900,6.51165576171875,-0.11405600276887416,-0.003674286332260817,0.014114048211462796
1782943341574640600,6.521640625,-0.10926467683911323,-0.002400777531415224,0.0006072771441889926
1782943341584626000,6.5316259765625,-0.05405541531443596,0.00011957125905901192,-0.01750925730743911
1782943341594611000,6.54161083984375,-0.07560030764639378,0.004652812508214265,-0.0028981873932294546
1782943341604595000,6.551594970703125,-0.14218962584137915,-0.004195387596916407,0.016890403889887964
1782943341614580000,6.561580078125,-0.07230886488556862,0.0005886318092234432,-0.0015094547148793934
1782943341624565000,6.57156494140625,-0.10866846451163291,0.0051189869815483685,0.0025965375655330717
1782943341634549800,6.5815498046875,-0.09624912792146205,0.005305011072941124,0.001804103979631327
1782943341644534800,6.59153466796875,-0.10447919612824916,-0.002049260680004954,-0.00908749332029838
1782943341654519800,6.601519775390625,-0.10058978747427463,-0.0008078457841649651,0.0001959700966719538
1782943341664504800,6.6115048828125,-0.09520224921703338,-0.0006728577602654695,-0.0036251042951364067
1782943341674489900,6.62148974609375,-0.11929624150991439,-0.0014986410599201916,-0.0008265413514804094
1782943341684475000,6.631474853515625,-0.10447978065013885,-0.006118519412912428,-0.00519249517575372
1782943341694460000,6.6414599609375,-0.09924012643098831,0.00006175839090719819,-0.001730732782743871
1782943341704444000,6.65144384765625,-0.09998772992789745,0.0034904541979543864,0.0001122099365107715
1782943341714429000,6.661428955078125,-0.0937070422232151,0.0020024989288300273,-0.0008627771420637145
1782943341724414000,6.6714140625,-0.09131225604116916,0.0028889446408487856,0.008660404181759803
1782943341734398700,6.681398681640625,-0.10358195502758026,-0.0011829809731803834,-0.0038653108257567506
1782943341744383700,6.6913837890625,-0.10747136368155479,0.0014726298358291386,-0.00221888162586838
1782943341754368800,6.70136865234375,-0.09460136071443558,-0.0011364566840231418,-0.0039719678043154995
1782943341764353800,6.711353759765625,-0.09400164125561714,-0.004479026843886822,-0.0012249341184971854
1782943341774339000,6.721339111328125,-0.09385317269563674,-0.0005429295039735734,-0.003076384371193126
1782943341784323800,6.73132373046875,-0.095797877022624,0.007665493126586079,-0.008889239934994839
1782943341794307800,6.741307861328125,-0.10282967535555362,0.00926903759939596,-0.005873216582066379
1782943341804292900,6.75129296875,-0.09684475572705269,0.007333064568135887,0.004813848288822919
1782943341814278000,6.76127783203125,-0.10642331593334674,-0.007123312541283667,-0.006117103773960843
1782943341824263000,6.771262939453125,-0.10058511129915713,0.007299819885659963,-0.0036166058948496355
1782943341834248000,6.781248046875,-0.09280161781609057,0.003002762012556195,-0.004542684930935501
1782943341844232700,6.791232666015625,-0.08487725455760955,-0.0069113137584179635,0.005409202099777758
1782943341854217700,6.8012177734375,-0.10328326434195041,-0.0025328429458662868,0.008901989818713627
1782943341864202800,6.81120263671875,-0.09250935687124728,0.0004648045001551509,-0.0016786418359028175
1782943341874188000,6.82118798828125,-0.09460077619254588,-0.0013453136617317795,-0.0014301013017771764
1782943341884172800,6.8311728515625,-0.09145604842603205,0.0032075638696551323,-0.013103779756953008
1782943341894157000,6.841156982421875,-0.10716741229891777,-0.0012950813118368387,0.0006041262058774009
1782943341904141800,6.851141845703125,-0.09384966556429862,0.006623126200493425,-0.0023139577644877133
1782943341914126800,6.861126953125,-0.10402502261996269,-0.0026235899692401287,0.0018926590459188446
1782943341924112000,6.87111181640625,-0.1109089369148016,0.007704436897486447,-0.00003150938311591744
1782943341934097000,6.881096923828125,-0.09998656088411807,0.0030421076422557235,0.009858377228095195
1782943341944081700,6.89108154296875,-0.09983516971468925,-0.0034554194171912966,0.0019410875977948308
1782943341954066700,6.901066650390625,-0.10988368552029132,0.0011649886587634683,-0.010443606937257573
1782943341964052000,6.911052001953125,-0.047555531901121134,0.018097217829804866,-0.02494631197301205
1782943341974037000,6.921037109375,1.2146236272871493,-0.10184097484545782,-0.2504837040826678
1782943341984022000,6.93102197265625,-1.610764633321762,0.09683090986479073,0.2048522721119225
1782943341994006000,6.941006103515625,-0.36710780377387997,-0.05442965545430779,0.17830531544266268
1782943342003990800,6.95099072265625,0.3548573940098285,0.09989069929420948,-0.22694117166008798
1782943342013975800,6.960975830078125,-0.48448739800751206,-0.06531630258448422,0.1357503409083467
1782943342023960800,6.9709609375,-0.015248422536253928,0.0016208061348646878,0.013289027530211023
1782943342033945900,6.98094580078125,0.3434405124604702,0.014320841096248477,-0.12598262393865733
