time,seconds_elapsed,z,y,x
1782943321724534000,0.088533935546875,-0.0011210087686777115,-0.0002716612070798874,0.002072987612336874
1782943321734519000,0.09851904296875,-0.0006898432038724422,-0.004829928278923035,0.00036190636456012726
1782943321744504000,0.108504150390625,0.0006038704887032509,0.0008895108476281166,-0.0008466290310025215
1782943321754488000,0.118488037109375,0.00031092274002730846,-0.0011699115857481956,-0.0003853701055049896
1782943321764473000,0.12847314453125,-0.0007715723477303982,0.0007865633815526962,0.0003567170351743698
1782943321774457900,0.138457763671875,0.0009472316596657038,0.0009508803486824036,-0.0010979017242789268
1782943321784443000,0.14844287109375,0.0006577421445399523,0.00046005938202142715,-0.000773528590798378
1782943321794428200,0.15842822265625,-0.000982232391834259,0.000013447366654872894,0.000857125036418438
1782943321804413200,0.1684130859375,-0.0012572770938277245,-0.002012578770518303,0.0010364046320319176
1782943321814398000,0.17839794921875,-0.0002833590842783451,0.0025315722450613976,0.0003391890786588192
1782943321824383000,0.188383056640625,0.0009936606511473656,0.003393462859094143,-0.0023413444869220257
1782943321834367000,0.198366943359375,-0.0013403333723545074,-0.0005775764584541321,-0.0003591538406908512
1782943321844352000,0.20835205078125,-0.0004739142023026943,0.001185677945613861,-0.0023881420493125916
1782943321854337000,0.2183369140625,0.00015512481331825256,0.0009377375245094299,-0.0005439026281237602
1782943321864322000,0.228322021484375,-0.0016095051541924477,-0.0012197885662317276,-0.001498398371040821
1782943321874306800,0.238306884765625,0.0015183775685727596,0.0012186020612716675,0.0014127027243375778
1782943321884292000,0.2482919921875,0.002086104592308402,-0.0015623625367879868,-0.000125211663544178
1782943321894277000,0.258277099609375,-0.0015333974733948708,-0.0011338600888848305,-0.0005521159619092941
1782943321904262100,0.26826220703125,-0.0016884231008589268,0.000741071067750454,0.00004551047459244728
1782943321914247000,0.278246826171875,0.002029349561780691,0.001264914870262146,-0.001980888657271862
1782943321924231200,0.288231201171875,-0.001964080613106489,0.0006795274093747139,-0.0004393770359456539
1782943321934216000,0.2982158203125,0.00017656804993748665,-0.0002613672986626625,0.0004961914382874966
1782943321944201000,0.308200927734375,-0.0005181208252906799,0.000898473896086216,0.0003995252773165703
1782943321954186000,0.31818603515625,0.0004171812906861305,-0.00024428870528936386,0.0006080507300794125
1782943321964171000,0.3281708984375,-0.0011644959449768066,0.0018594134598970413,-0.00007450487464666367
1782943321974155800,0.33815576171875,0.00023206602782011032,-0.0011741938069462776,0.0003193765878677368
1782943321984141000,0.34814111328125,-0.0020075258798897266,-0.00017836876213550568,-0.0010584997944533825
1782943321994126000,0.3581259765625,-0.000340120866894722,-0.0019038310274481773,0.0032094824127852917
1782943322004110000,0.368110107421875,-0.0010558729991316795,0.0018066531047224998,-0.00018233945593237877
1782943322014095000,0.37809521484375,0.00014148419722914696,0.001932087354362011,-0.0007527880370616913
1782943322024080100,0.388080078125,0.0014169169589877129,0.00045006629079580307,0.00011692522093653679
1782943322034065000,0.39806494140625,0.00012049032375216484,-0.0006287796422839165,-0.0026570232585072517
1782943322044050000,0.4080498046875,0.0020014531910419464,-0.0005127806216478348,0.0005224458873271942
1782943322054035000,0.418034912109375,-0.000007901806384325027,0.0009647412225604057,-0.00023202784359455109
1782943322064020000,0.42802001953125,-0.002161215990781784,-0.0006472589448094368,-0.00034190481528639793
1782943322074005200,0.438005126953125,0.00005746353417634964,-0.0012251650914549828,0.0007073800079524517
1782943322083989000,0.447989013671875,0.00037984619848430157,0.0005166763439774513,-0.003376336768269539
1782943322093974000,0.45797412109375,0.0006411022040992975,0.0014852676540613174,0.00033637648448348045
1782943322103959000,0.467958984375,0.0011447726283222437,-0.00029932428151369095,0.00014060456305742264
1782943322113944000,0.477944091796875,-0.0005820211954414845,-0.0007001291960477829,0.00015631737187504768
1782943322123929000,0.48792919921875,-0.001869135070592165,-0.0003593023866415024,-0.0007640030235052109
1782943322133914000,0.4979140625,0.00019348319619894028,-0.0012448038905858994,-0.0019954489544034004
1782943322143899000,0.50789892578125,0.001440966734662652,0.0003702770918607712,-0.00010774470865726471
1782943322153884000,0.5178837890625,-0.00035240594297647476,0.0017998619005084038,-0.0029586590826511383
1782943322163868000,0.527867919921875,-0.0006782598793506622,0.00003767386078834534,-0.0014383653178811073
1782943322173853000,0.53785302734375,0.0012757014483213425,0.0005018627271056175,0.0007318444550037384
1782943322183838200,0.547838134765625,-0.00020946934819221497,-0.0010182829573750496,-0.000050939153879880905
1782943322193823000,0.557822998046875,-0.00042012566700577736,0.0009833481162786484,-0.0008799806237220764
1782943322203808000,0.56780810546875,-0.002653387375175953,0.0003561098128557205,-0.00032471586018800735
1782943322213793000,0.57779296875,-0.0004395013675093651,-0.00045535527169704437,-0.0005425624549388885
1782943322223778000,0.587778076171875,-0.0001232321374118328,0.002735045738518238,0.002278350293636322
1782943322233763000,0.59776318359375,-0.0014553451910614967,0.00025164801627397537,0.0010048267431557178
1782943322243747000,0.6077470703125,-0.0014693611301481724,-0.00046935025602579117,-0.0003882995806634426
1782943322253731800,0.61773193359375,0.001765580615028739,0.002385559491813183,-0.0014530313201248646
1782943322263716900,0.627716796875,-0.0002772505395114422,-0.0016846610233187675,0.0008172756060957909
1782943322273702000,0.637701904296875,0.0018226520624011755,0.001315123401582241,0.000502223614603281
1782943322283687200,0.647687255859375,0.0004899834748357534,0.002024531364440918,-0.0017776633612811565
1782943322293672200,0.657672119140625,-0.0012836819514632225,-0.0007576737552881241,-0.001739314291626215
1782943322303657000,0.667656982421875,0.0009077729191631079,0.0005086623132228851,0.000025608111172914505
1782943322313642000,0.67764208984375,-0.00013751769438385963,0.0007757777348160744,-0.000429526437073946
1782943322323627000,0.687626953125,0.00007598474621772766,0.0011372771114110947,-0.000031989533454179764
1782943322333611000,0.697611083984375,0.0007260625716298819,-0.0021155085414648056,0.001421031542122364
1782943322343596000,0.707595947265625,-0.00034589366987347603,0.0017763301730155945,-0.0004094978794455528
1782943322353581000,0.7175810546875,-0.0004156683571636677,0.0014082808047533035,0.0026965471915900707
1782943322363565800,0.72756591796875,0.0006776624359190464,-0.00042316969484090805,0.001116917934268713
1782943322373551000,0.737551025390625,-0.0006448631174862385,0.0005049426108598709,-0.0012900475412607193
1782943322383536000,0.7475361328125,-0.0007411283440887928,-0.0004132511094212532,-0.0008950973860919476
1782943322393521200,0.757521240234375,0.0011518464889377356,-0.0011466862633824348,-0.0014458396472036839
1782943322403506000,0.767505859375,-0.00042004184797406197,0.0006582159548997879,-0.00031446246430277824
1782943322413490200,0.777490234375,-0.000894883181899786,-0.00048694293946027756,0.00016730325296521187
1782943322423475000,0.787474853515625,-0.0003955848515033722,-0.002612113021314144,-0.0006300038658082485
1782943322433460000,0.7974599609375,0.000308820977807045,-0.00019982177764177322,-0.0014843461103737354
1782943322443445000,0.807445068359375,-0.0013155885972082615,-0.0000882493332028389,0.00012689223513007164
1782943322453430000,0.817429931640625,0.0032871528528630733,-0.0008443212136626244,0.001423319336026907
1782943322463414800,0.827414794921875,0.0014894821215420961,0.00037554558366537094,0.00011384207755327225
1782943322473400000,0.837400146484375,-0.0007659490220248699,0.0027207257226109505,-0.0015548942610621452
1782943322483381000,0.847381103515625,0.0007050479762256145,-0.0020201317965984344,0.0003835167735815048
1782943322493365000,0.857364990234375,-0.0013993820175528526,0.0010265251621603966,-0.0005914662033319473
1782943322503350000,0.86735009765625,0.00013091275468468666,-0.0009044399484992027,0.0024733198806643486
1782943322513335000,0.8773349609375,-0.00023047858849167824,-0.00028765108436346054,4.237517714500427e-8
1782943322523320300,0.8873203125,-0.0010115206241607666,-0.0005233744159340858,-0.001476893201470375
1782943322533305000,0.89730517578125,0.0010018290486186743,0.0010681310668587685,-0.002326175570487976
1782943322543290000,0.9072900390625,-0.000026264693588018417,-0.00024827197194099426,-0.00014156242832541466
1782943322553275100,0.917275146484375,0.0005963821895420551,-0.0003577275201678276,-0.0017565037123858929
1782943322563260200,0.92726025390625,-0.000261625275015831,0.001227053813636303,0.00046334927901625633
1782943322573244200,0.937244140625,-0.0009300787933170795,-0.0012427615001797676,0.0012061051093041897
1782943322583229200,0.947229248046875,-0.0012243101373314857,0.00004361756145954132,-0.0008930414915084839
1782943322593214000,0.9572138671875,0.00026413053274154663,0.00019994564354419708,-0.0017583025619387627
1782943322603199000,0.967198974609375,-0.002379740122705698,-0.00019403453916311264,-0.00031801266595721245
1782943322613184300,0.977184326171875,-0.00216668751090765,-0.0011663548648357391,-0.0024437480606138706
1782943322623169300,0.987169189453125,-0.001856040209531784,-0.0025378791615366936,-0.0010069250129163265
1782943322633154000,0.997154052734375,0.0004899383056908846,0.00184621661901474,0.0007073516026139259
1782943322643139000,1.00713916015625,-0.0004958831705152988,0.0006938297301530838,-0.0031210207380354404
1782943322653123000,1.017123046875,0.001984851434826851,0.00038676708936691284,-0.0020174062810838223
1782943322663108000,1.027108154296875,-0.0014679362066090107,-0.001252995803952217,0.0003211731091141701
1782943322673093000,1.037093017578125,-0.0007329038344323635,0.00038697849959135056,0.0015265196561813354
1782943322683078100,1.047078125,0.0020377878099679947,-0.0004861149936914444,0.00017058523371815681
1782943322693063000,1.05706298828125,-0.000974779948592186,0.0013631833717226982,0.00013942644000053406
1782943322703048000,1.0670478515625,0.0032805660739541054,0.0018038572743535042,-0.0009340150281786919
1782943322713033200,1.077033203125,0.0008962377905845642,-0.0008230842649936676,-0.000363299623131752
1782943322723018200,1.087018310546875,-0.0018869433552026749,0.002936611883342266,-0.0007876474410295486
1782943322733002200,1.097002197265625,-0.00045336363837122917,-0.001897025853395462,0.000009702518582344055
1782943322742987300,1.1069873046875,-0.001325580757111311,0.0005934862419962883,0.0010102814994752407
1782943322752972000,1.116971923828125,-0.002672075293958187,-0.0008853673934936523,0.00029895128682255745
1782943322762957000,1.12695703125,0.0007613732013851404,0.0028394581750035286,0.00034272437915205956
1782943322772942000,1.136942138671875,-0.001363829243928194,-0.0006330376490950584,-0.000024791806936264038
1782943322782927000,1.146927001953125,-0.0025700731202960014,-0.0011029327288269997,-0.001089304219931364
1782943322792912100,1.156912109375,-0.000296266283839941,0.001984204165637493,0.0012244503013789654
1782943322802897200,1.166897216796875,-0.0012389649637043476,0.000765717588365078,-0.00034381402656435966
1782943322812882200,1.176882080078125,-0.0003755679354071617,0.002918883226811886,0.0003795009106397629
1782943322822866200,1.1868662109375,-0.0013437941670417786,0.00046284403651952744,-0.0032038851641118526
1782943322832851200,1.196851318359375,-0.0006383229047060013,-0.0015654191374778748,0.0016585146076977253
1782943322842836200,1.206836181640625,-0.0015295729972422123,-0.0022815437987446785,0.0013133082538843155
1782943322852821000,1.216821044921875,0.00024861935526132584,-0.001473807729780674,0.0005021095275878906
1782943322862806000,1.226805908203125,0.001059951027855277,-0.0010497653856873512,-0.00008353032171726227
1782943322872791000,1.236791015625,-0.00246527511626482,-0.00032591819763183594,0.0016946620307862759
1782943322882776000,1.246776123046875,0.001212729373946786,-0.0017263498157262802,0.000285259447991848
1782943322892761000,1.256760986328125,0.0002039237879216671,-0.0006198063492774963,0.0010320097208023071
1782943322902745000,1.2667451171875,-0.002878814470022917,-0.0006827609613537788,0.0010001403279602528
1782943322912730000,1.276730224609375,0.00007329927757382393,0.0026296786963939667,-0.001438249833881855
1782943322922715100,1.286715087890625,0.00043073692359030247,0.0010297950357198715,0.00004035653546452522
1782943322932700200,1.2967001953125,-0.0017109774053096771,0.0005272561684250832,-0.0009527364745736122
1782943322942685200,1.306685302734375,-0.0009748181328177452,-0.0000844411551952362,-0.0004646643064916134
1782943322952670200,1.316670166015625,0.0024532026145607233,0.0010625822469592094,-0.002386933658272028
1782943322962655000,1.326655029296875,-0.0015207664109766483,-0.0007504969835281372,0.0013121971860527992
1782943322972640000,1.336639892578125,0.0012207278050482273,-0.0005104877054691315,0.0005959887057542801
1782943322982624000,1.3466240234375,-0.0007180995307862759,-0.0002693627029657364,-0.00203027855604887
1782943322992609000,1.356609130859375,0.0012576996814459562,-0.004011370241641998,0.0008163740858435631
1782943323002594000,1.366593994140625,-0.00012310175225138664,0.001573646441102028,-0.0010224413126707077
1782943323012579300,1.376579345703125,0.002848453354090452,-0.00006632786244153976,0.0009102150797843933
1782943323022564000,1.386564208984375,-0.0015484453178942204,0.00022701267153024673,0.0005991882644593716
1782943323032549000,1.396549072265625,-0.0015385914593935013,-0.001306968741118908,-0.001015752088278532
1782943323042534100,1.4065341796875,0.0010962255764752626,0.0007978398352861404,0.0006229579448699951
1782943323052519200,1.416519287109375,0.00041179312393069267,-0.000340927392244339,0.00016436167061328888
1782943323062503200,1.426503173828125,-0.0015369276516139507,-0.0021336842328310013,0.0015852227807044983
1782943323072488200,1.43648828125,-0.0003137374296784401,-0.0001850491389632225,0.0023412941955029964
1782943323082473000,1.446472900390625,0.000530916964635253,0.0001520290970802307,0.00013449834659695625
1782943323092458000,1.4564580078125,0.00012478511780500412,-0.0016815569251775742,0.0013076206669211388
1782943323102443300,1.466443359375,0.0011457884684205055,0.00220425333827734,-0.0003474382683634758
1782943323112428300,1.47642822265625,-0.0006478508003056049,0.0014433879405260086,-0.0010614320635795593
1782943323122413000,1.4864130859375,-0.0003311741165816784,0.0007180320098996162,0.0003277575597167015
1782943323132398000,1.496398193359375,0.0019732590299099684,0.0008117752149701118,0.0007456075400114059
1782943323142382000,1.506382080078125,-0.0015455889515578747,0.0013539902865886688,-0.0004101945087313652
1782943323152367000,1.5163671875,0.00012687640264630318,0.0019476087763905525,-0.001009938307106495
1782943323162352000,1.52635205078125,-0.002261681016534567,0.0004930505529046059,0.0005253180861473083
1782943323172337200,1.536337158203125,0.000009994953870773315,0.001702924259006977,0.001138910185545683
1782943323182322000,1.546322021484375,-0.001309473067522049,-0.0023101596161723137,0.0008298065513372421
1782943323192307000,1.556306884765625,-0.0016596787609159946,0.0006083985790610313,-0.00010496331378817558
1782943323202292200,1.566292236328125,0.000990740256384015,0.0012788726016879082,0.0008461554534733295
1782943323212277200,1.57627734375,0.0012647793628275394,-0.0006194282323122025,-0.0006854282692074776
1782943323222261200,1.58626123046875,0.0000026891939342021942,0.00027482397854328156,0.002848565112799406
1782943323232246300,1.596246337890625,-0.0009038508869707584,-0.0004871068522334099,-0.0013485769741237164
1782943323242231000,1.60623095703125,0.0012128364760428667,0.0007385928183794022,0.0003250553272664547
1782943323252216000,1.616216064453125,-0.0015882765874266624,0.00035642925649881363,-0.0006145075894892216
1782943323262201000,1.626201171875,0.0010477907489985228,0.0005371673032641411,0.0012976382859051228
1782943323272186000,1.63618603515625,-0.001329080667346716,0.0015377169474959373,-0.0005077188834547997
1782943323282171100,1.646171142578125,0.002124840160831809,0.0018494492396712303,-0.00048686983063817024
1782943323292156000,1.656156005859375,0.003060941118746996,0.0014720791950821877,-0.0021912925876677036
1782943323302141200,1.66614111328125,-0.0015497524291276932,0.0006874483078718185,-0.00004913331940770149
1782943323312125200,1.676125244140625,-0.00019819801673293114,-0.0026883743703365326,0.0028614355251193047
1782943323322110200,1.686110107421875,-0.0008058617822825909,-0.00009266659617424011,0.0004929122515022755
1782943323332095200,1.69609521484375,-0.0024319877848029137,-0.0020141368731856346,-0.00014677876606583595
1782943323342080000,1.706080078125,-0.0011668489314615726,0.00004872120916843414,0.00040898192673921585
1782943323352065000,1.71606494140625,-0.000007042195647954941,0.00047562550753355026,-0.0019042398780584335
1782943323362050000,1.726050048828125,0.0013173478655517101,0.0009023984894156456,-0.0011600358411669731
1782943323372035000,1.73603515625,0.0011716729495674372,-0.0011527622118592262,-0.0024713771417737007
1782943323382020000,1.74602001953125,-0.000007188413292169571,0.00018863193690776825,-0.0010094353929162025
1782943323392004000,1.756004150390625,-0.0016125417314469814,0.0015708133578300476,-0.0011575063690543175
1782943323401988900,1.76598876953125,0.0002276790328323841,-0.0018197009339928627,0.0019703954458236694
1782943323411974100,1.77597412109375,-0.0004594167694449425,0.00023119989782571793,-0.0013100863434374332
1782943323421959200,1.785959228515625,-0.00022046919912099838,-0.003178930841386318,-0.000026470981538295746
1782943323431944200,1.795944091796875,-0.0009451154619455338,-0.002444164827466011,-0.0012347474694252014
1782943323441929200,1.80592919921875,-0.000476303044706583,0.000764044001698494,-0.00011869426816701889
1782943323451914000,1.8159140625,-0.0007929527200758457,0.0007539233192801476,-0.0004995260387659073
1782943323461899000,1.82589892578125,0.000580919673666358,-0.0014730263501405716,-0.0005456558428704739
1782943323471883000,1.835883056640625,0.0004160699900239706,-0.000898582860827446,-0.00027481233701109886
1782943323481868000,1.845867919921875,0.00027989991940557957,-0.0002191159874200821,-0.0022794976830482483
1782943323491853300,1.855853271484375,0.0008684585336595774,0.00030552688986063004,-0.0004834616556763649
1782943323501838300,1.86583837890625,-0.0017016748897731304,0.0003967881202697754,0.002627716865390539
1782943323511823400,1.8758232421875,0.0012312643229961395,0.0004031797870993614,-0.0003238650970160961
1782943323521808400,1.885808349609375,-0.0010254564695060253,-0.000255717895925045,0.0014983988367021084
1782943323531793400,1.89579345703125,-0.00019401777535676956,-0.0027457736432552338,0.00042301416397094727
1782943323541778400,1.9057783203125,-0.0011063781566917896,0.001137375831604004,0.001361119095236063
1782943323551762400,1.915762451171875,-0.0024432847276329994,0.0005573388189077377,-0.0009933821856975555
1782943323561747200,1.925747314453125,0.0005875234492123127,-0.0022706622257828712,-0.0005318713374435902
1782943323571732200,1.935732177734375,0.0009582354687154293,-0.0013356264680624008,0.0016979938372969627
1782943323581717200,1.94571728515625,-0.0002844906412065029,0.00004541035741567612,0.00005708495154976845
1782943323591702500,1.95570263671875,0.0022476431913673878,-0.0014369050040841103,0.0015058447606861591
1782943323601687600,1.9656875,0.001103168586269021,-0.001009983941912651,-0.0001151328906416893
1782943323611672300,1.97567236328125,-0.0012228363193571568,0.0017775464802980423,0.00032721832394599915
1782943323621657300,1.9856572265625,-0.0012593907304108143,0.0010205721482634544,0.0019037825986742973
1782943323631641300,1.995641357421875,0.0033108596689999104,0.0027644094079732895,0.0009045642800629139
1782943323641626400,2.00562646484375,-0.0002541639842092991,-0.00226027425378561,-0.0018593212589621544
1782943323651611400,2.015611328125,0.000543719157576561,0.001375206746160984,0.002226500306278467
1782943323661596400,2.025596435546875,-0.0009735156781971455,-0.002373875118792057,-0.0012028822675347328
1782943323671581200,2.035581298828125,0.00011598365381360054,-0.00018582120537757874,0.0011383024975657463
1782943323681566200,2.045566162109375,0.0005869104061275721,0.0004730578511953354,-0.00033097434788942337
1782943323691551500,2.055551513671875,0.0008116811513900757,0.000047750771045684814,0.000057048164308071136
1782943323701536500,2.06553662109375,-0.0008647548966109753,0.00011548586189746857,-0.000235013198107481
1782943323711520500,2.0755205078125,-0.00015209335833787918,-0.0024424800649285316,-0.000774037092924118
1782943323721505300,2.08550537109375,0.0024366227444261312,-0.0016049975529313087,0.0003727572038769722
1782943323731490300,2.095490234375,0.0005492405034601688,-0.000021748244762420654,-0.0002472265623509884
1782943323741475300,2.105475341796875,-0.00007053371518850327,-0.0038577234372496605,0.00009291805326938629
1782943323751460400,2.11546044921875,-0.0001645432785153389,0.0004083942621946335,-0.000003221910446882248
1782943323761445400,2.1254453125,0.0006931661628186703,0.001040395349264145,-0.0011915462091565132
1782943323771430100,2.13543017578125,0.0017150212079286575,-0.003676062449812889,0.0016021099872887135
1782943323781415400,2.14541552734375,0.0007035313174128532,-0.0016888109967112541,0.00023294193670153618
1782943323791400400,2.155400390625,-0.0016768020577728748,-0.00029730983078479767,0.0018082018941640854
1782943323801384400,2.165384521484375,-0.0008193980902433395,-0.0006148936226963997,0.00043705105781555176
1782943323811369500,2.175369384765625,-0.0006662663072347641,0.0007523726671934128,-0.0011366112157702446
1782943323821354500,2.1853544921875,0.0020988541655242443,-0.0008324924856424332,0.0006043743342161179
1782943323831339300,2.19533935546875,-0.0013017361052334309,0.0010626129806041718,0.0007588379085063934
1782943323841324300,2.20532421875,-0.0005249250680208206,-0.00010013487190008163,-0.0016323220916092396
1782943323851309300,2.215309326171875,-0.0004958966746926308,0.0005065333098173141,0.00003827875480055809
1782943323861294300,2.22529443359375,-0.0002883882261812687,-0.0020912569016218185,-0.00206235283985734
1782943323871279400,2.235279296875,-0.0005957172252237797,-0.0018563661724328995,-0.001159008126705885
1782943323881263400,2.245263427734375,-0.0022902879863977432,0.0005000084638595581,-0.0010826550424098969
1782943323891248400,2.255248291015625,-0.0002393876202404499,0.0023596948012709618,-0.0008046207949519157
1782943323901233400,2.2652333984375,0.00016774563118815422,-0.000818164087831974,-0.002647498156875372
1782943323911218400,2.275218505859375,-0.00048765819519758224,0.0005528312176465988,-0.0023212614469230175
1782943323921203500,2.285203369140625,0.0012024107854813337,0.0013173595070838928,-0.00040658842772245407
1782943323931188200,2.295188232421875,0.005303146317601204,-0.0026198578998446465,-0.00016504013910889626
1782943323941173200,2.30517333984375,0.0008008971344679594,0.0011929729953408241,-0.0013521001674234867
1782943323951158300,2.315158203125,0.00006906036287546158,-0.0009154519066214561,0.00018480978906154633
1782943323961142300,2.325142333984375,-0.00047206226736307144,-0.00018857698887586594,0.000030753668397665024
1782943323971127300,2.335127197265625,-0.002155712805688381,0.001171233132481575,-0.00037111714482307434
1782943323981112300,2.3451123046875,0.000948470551520586,0.0007403111085295677,0.00024449825286865234
1782943323991097300,2.355097412109375,0.0006214345339685678,-0.0012429449707269669,0.0015678233467042446
1782943324001082400,2.365082275390625,-0.0010550599545240402,0.002277716062963009,0.0004825768992304802
1782943324011067400,2.3750673828125,-0.0013589262962341309,0.00016156770288944244,-0.0014519430696964264
1782943324021052400,2.385052490234375,-0.0012338114902377129,-0.000288437120616436,0.000693195965141058
1782943324031037400,2.395037353515625,-0.003549430053681135,-0.001099902205169201,0.00007933750748634338
1782943324041021400,2.405021484375,-0.0014674845151603222,-0.0007292283698916435,0.0005983049049973488
1782943324051006200,2.415006103515625,0.0015267073176801205,0.0018859952688217163,0.0004760655574500561
1782943324060991200,2.4249912109375,0.00005785888060927391,-0.002285819500684738,-0.0007786834612488747
1782943324070976300,2.434976318359375,-0.0032196934334933758,-0.001797662116587162,-0.0021856315433979034
1782943324080961500,2.44496142578125,-0.0026534823700785637,-0.005617900751531124,-0.0016403896734118462
1782943324090946600,2.454946533203125,-0.0011759605258703232,-0.0010074367746710777,-0.0002448931336402893
1782943324100931300,2.464931396484375,0.002058709505945444,-0.0003338819369673729,-0.00021082302555441856
1782943324110916400,2.474916259765625,0.002911986317485571,0.003369244746863842,-0.00045902933925390244
1782943324120901400,2.4849013671875,0.0027282321825623512,0.0035224687308073044,0.0018594437278807163
1782943324130885400,2.494885498046875,0.0013266103342175484,0.0007138988003134727,0.004083183128386736
1782943324140870400,2.504870361328125,0.0006453725509345531,-0.0032655121758580208,-0.00006280187517404556
1782943324150855400,2.51485546875,0.00042752595618367195,0.0006485357880592346,-0.000050817616283893585
1782943324160840200,2.524840087890625,-0.00046960311010479927,-0.0019537759944796562,-0.0027427771128714085
1782943324170825200,2.5348251953125,-0.002610784489661455,0.0012952806428074837,-0.001444751862436533
1782943324180810500,2.544810546875,0.0013376048300415277,-0.0028703557327389717,0.00045518437400460243
1782943324190795500,2.55479541015625,-0.0004043686203658581,0.0004274370148777962,0.000807520467787981
1782943324200780300,2.5647802734375,0.00015231221914291382,0.0004041846841573715,-0.00036245863884687424
1782943324210764300,2.574764404296875,0.00031716213561594486,-0.0009907791391015053,0.0004929490387439728
1782943324220749300,2.584749267578125,-0.0016905325464904308,0.001779821701347828,0.0008661593310534954
1782943324230734300,2.594734375,-0.001478545367717743,0.0018027247861027718,0.0021362206898629665
1782943324240719400,2.60471923828125,-0.00005120318382978439,-0.0040879277512431145,-0.0016402900218963623
1782943324250704400,2.614704345703125,0.0013173953630030155,0.00001653563231229782,-0.00011909240856766701
1782943324260689200,2.624689208984375,0.0010451450943946838,0.0015418138355016708,0.0005527320317924023
1782943324270674400,2.63467431640625,-0.0028350804932415485,0.00020277593284845352,-0.00017670774832367897
1782943324280659500,2.644659423828125,-0.002498189453035593,-0.0003416910767555237,-0.0012411586940288544
1782943324290643500,2.6546435546875,-0.00000280747190117836,-0.0011646077036857605,-0.0013372991234064102
1782943324300628500,2.66462841796875,-0.0005676611326634884,-0.0011438103392720222,0.0017519989050924778
1782943324310613500,2.674613525390625,0.0009308997541666031,-0.0010721711441874504,0.0004742145538330078
1782943324320598300,2.684598388671875,-0.0010211775079369545,-0.000013541430234909058,-0.0009369859471917152
1782943324330583300,2.694583251953125,0.0005860400851815939,0.001822441816329956,0.0004220246337354183
1782943324340568300,2.704568359375,-0.0003865188919007778,-0.0009192349389195442,-0.002161302138119936
1782943324350553300,2.71455322265625,0.00125531991943717,-0.000633743591606617,-0.00039509357884526253
1782943324360538400,2.724538330078125,0.001024905825033784,0.0008122939616441727,0.00012147659435868263
1782943324370523400,2.7345234375,0.00011650146916508675,-0.00021834857761859894,-0.0009278091602027416
1782943324380507100,2.744507080078125,0.002226992743089795,-0.0020487066358327866,-0.0005758390761911869
1782943324390492400,2.754492431640625,0.0014147285837680101,-0.0007703891023993492,-0.0013817115686833858
1782943324400477400,2.7644775390625,0.0002310420386493206,-0.002000405453145504,0.00216487143188715
1782943324410462500,2.77446240234375,0.0006227931007742882,-0.0010967953130602837,0.0011049332097172737
1782943324420447200,2.784447265625,-0.001463477499783039,0.0029134731739759445,-0.0014741593040525913
1782943324430432300,2.794432373046875,0.0011229845695197582,0.001960860565304756,0.001056375913321972
1782943324440417300,2.804417236328125,-0.0018194741569459438,-0.0009644245728850365,0.0007571373134851456
1782943324450402300,2.81440234375,0.001991243101656437,-0.0012547094374895096,0.0007733823731541634
1782943324460386300,2.82438623046875,0.0007853659335523844,-0.001208646222949028,-0.0023653125390410423
1782943324470371300,2.834371337890625,0.0005832319147884846,0.0010766126215457916,0.000759374350309372
1782943324480356400,2.8443564453125,-0.0004781661555171013,-0.0003538886085152626,0.0021898560225963593
1782943324490341600,2.854341552734375,-0.0001229005865752697,-0.0009605567902326584,0.0012178020551800728
1782943324500326700,2.86432666015625,-0.0013716686517000198,0.0013706935569643974,-0.00025860173627734184
1782943324510311700,2.874311767578125,-0.002453178633004427,-0.001398993656039238,0.003463165834546089
1782943324520296400,2.88429638671875,-0.0025467397645115852,0.0014119269326329231,-0.0002832547761499882
1782943324530281500,2.894281494140625,-0.0007975753396749496,-0.0032858895137906075,0.0008134348317980766
1782943324540265500,2.904265380859375,-0.0005214549601078033,0.000013791024684906006,0.0018739891238510609
1782943324550250500,2.91425048828125,-0.0017640860751271248,-0.0008306968957185745,0.0025144796818494797
1782943324560235500,2.924235595703125,-0.0014838362112641335,0.0007287329062819481,-0.0011172578670084476
1782943324570220800,2.934220703125,-0.0002065841108560562,0.0015782807022333145,0.0014010271988809109
1782943324580205600,2.94420556640625,-0.000737327616661787,0.0009383177384734154,0.001362732145935297
1782943324590190600,2.954190673828125,0.0005628275685012341,-0.0006406698375940323,0.00002689054235816002
1782943324600175600,2.964175537109375,0.0003120035398751497,-0.0001722201704978943,-0.0002744067460298538
1782943324610160600,2.97416064453125,0.0013503700029104948,0.00017372425645589828,-0.0004909215494990349
1782943324620145700,2.984145751953125,-0.0010887514799833298,0.000364094041287899,0.0009597227908670902
1782943324630129700,2.994129638671875,-0.002628591377288103,-0.00013764575123786926,-0.0002237856388092041
1782943324640114400,3.004114501953125,0.0001515133772045374,0.0014089792966842651,0.00005577178671956062
1782943324650099500,3.014099365234375,-0.00012758607044816017,0.0005783392116427422,0.0012685754336416721
1782943324660084500,3.02408447265625,0.00013963342644274235,-0.0011966219171881676,0.0006631319411098957
1782943324670069800,3.03406982421875,-0.00039646076038479805,-0.00022909510880708694,0.001329720951616764
1782943324680054800,3.0440546875,0.0011469603050500154,0.00092355627566576,-0.002532828599214554
1782943324690039600,3.05403955078125,-0.0002397475764155388,-0.0015539824962615967,0.0010456605814397335
1782943324700024600,3.064024658203125,0.0004429304972290993,-0.0005167797207832336,0.0008013756014406681
1782943324710009600,3.074009521484375,0.00048740534111857414,0.0007844408974051476,-0.0011485912837088108
1782943324719993600,3.08399365234375,0.0011501649860292673,0.003703913651406765,-0.00031929975375533104
1782943324729978600,3.093978515625,0.0008574835956096649,-0.0010149413719773293,-0.0011483421549201012
1782943324739963600,3.103963623046875,0.0015315073542296886,-0.0018366854637861252,-0.00003503821790218353
1782943324749948400,3.113948486328125,-0.0007779859006404877,-0.0012462623417377472,-0.0008987011387944221
1782943324759933700,3.12393359375,0.0010387853253632784,0.001449665054678917,-0.002591836266219616
1782943324769918700,3.133918701171875,0.0009133503772318363,0.0007878690958023071,-0.0005324138328433037
1782943324779903700,3.14390380859375,0.00008612731471657753,-0.00047626160085201263,-0.0009281127713620663
1782943324789888500,3.153888427734375,0.0009593779686838388,0.0013109855353832245,-0.0008210535161197186
1782943324799872500,3.16387255859375,0.00016394047997891903,0.000996701419353485,-0.0009845416061580181
1782943324809857500,3.173857421875,0.0005703389178961515,-0.0022627413272857666,-0.0005624298937618732
1782943324819842600,3.183842529296875,0.00044989283196628094,-0.0011393120512366295,0.0026847245171666145
1782943324829827600,3.19382763671875,-0.0005522547289729118,0.0017566094174981117,-0.001111877616494894
1782943324839812600,3.2038125,0.0009415312670171261,-0.002202761359512806,0.001914018765091896
1782943324849797400,3.21379736328125,-0.0013615703210234642,-0.0005185781046748161,-0.0012767142616212368
1782943324859782700,3.22378271484375,0.0002980602439492941,-0.002049945294857025,0.003148166462779045
1782943324869767700,3.233767578125,0.0008610526565462351,0.0002403734251856804,4.377216100692749e-8
1782943324879751700,3.243751708984375,0.0012062012683600187,0.0003899969160556793,-0.0007680044509470463
1782943324889736700,3.25373681640625,0.001273046713322401,0.0017668511718511581,0.0008852863684296608
1782943324899721700,3.2637216796875,0.000054134055972099304,-0.0005332175642251968,0.002403142862021923
1782943324909706500,3.27370654296875,0.00045999977737665176,-0.0007473351433873177,0.0030132727697491646
1782943324919691500,3.28369140625,-0.0008999230340123177,-0.002021234482526779,0.00044014211744070053
1782943324929676500,3.293676513671875,0.002134216483682394,0.0009242212399840355,0.0034591015428304672
1782943324939661600,3.30366162109375,0.000878411578014493,-0.00124281644821167,0.0018959813751280308
1782943324949646600,3.313646484375,0.0031330438796430826,0.0006203306838870049,0.002619562204927206
1782943324959631600,3.323631591796875,0.002547544427216053,0.0005263388156890869,-0.0012033674865961075
1782943324969615600,3.33361572265625,0.001512640155851841,-0.0006710188463330269,0.0011585904285311699
1782943324979600600,3.3436005859375,0.0009686003904789686,0.0002524787560105324,-0.0014119097031652927
1782943324989585700,3.353585693359375,0.00006632134318351746,0.0026762206107378006,-0.0009567751549184322
1782943324999570700,3.36357080078125,0.0010910818818956614,-0.0008908426389098167,0.0016303155571222305
1782943325009555500,3.373555419921875,-0.0008839182555675507,-0.00020348094403743744,-0.000970527995377779
1782943325019540500,3.38354052734375,0.000888957642018795,-0.0002994230017066002,0.0005671852268278599
1782943325029525500,3.393525390625,0.000666317529976368,-0.0003391038626432419,0.0006518736481666565
1782943325039510500,3.403510498046875,0.0005749682895839214,0.0011833785101771355,0.0002089724875986576
1782943325049495800,3.413495849609375,-0.0009680674411356449,0.0026577040553092957,-0.00251464219763875
1782943325059479800,3.423479736328125,-0.001019586343318224,0.0007567014545202255,0.0011592535302042961
1782943325069464600,3.433464599609375,-0.00023129070177674294,-0.0017658444121479988,-0.0009188107214868069
1782943325079449600,3.44344970703125,0.002239979337900877,0.00015640165656805038,0.00157206691801548
1782943325089434600,3.4534345703125,0.0018018893897533417,0.00023256801068782806,-0.0013574105687439442
1782943325099419600,3.463419677734375,-0.00013746274635195732,0.0006114114075899124,-0.0000680023804306984
1782943325109404700,3.47340478515625,0.001225542975589633,0.0006359126418828964,-0.000493575818836689
1782943325119389400,3.483389404296875,0.00040627410635352135,-0.0014295745640993118,-0.0011403062380850315
1782943325129374500,3.49337451171875,-0.00019054021686315536,-0.0004932070150971413,-0.0012731985189020634
1782943325139358500,3.5033583984375,-0.0008052811026573181,-0.0004265010356903076,-0.0012181876227259636
1782943325149343500,3.513343505859375,0.0011332340072840452,0.0004166550934314728,0.0019874591380357742
1782943325159328800,3.523328857421875,0.00017844513058662415,0.000899716280400753,-0.00036635249853134155
1782943325169313800,3.533313720703125,-0.0024178707972168922,0.0012429971247911453,0.0017378111369907856
1782943325179298600,3.543298583984375,-0.001289689913392067,-0.00008694734424352646,-0.0031997719779610634
1782943325189283600,3.55328369140625,0.002506113611161709,0.0005077365785837173,-0.00101544801145792
1782943325199268600,3.5632685546875,-0.0014981948770582676,0.0037704305723309517,-0.0026740795001387596
1782943325209253600,3.573253662109375,0.0011593736708164215,-0.002333001233637333,-0.0012639360502362251
1782943325219238400,3.58323828125,-0.002390197478234768,-0.004111038520932198,-0.00198146840557456
1782943325229222700,3.59322265625,-0.0002977517433464527,0.0014970460906624794,0.0014556068927049637
1782943325239207400,3.60320751953125,-0.0016252449713647366,-0.0008852044120430946,-0.00035743461921811104
1782943325249192700,3.613192626953125,0.0017023750115185976,-0.0006630970165133476,-0.0015316219069063663
1782943325259177700,3.623177734375,0.0003909140359610319,0.0017991531640291214,0.0004648100584745407
1782943325269162800,3.633162841796875,0.0007863934151828289,0.0023349812254309654,-0.00031363172456622124
1782943325279147500,3.6431474609375,0.0002637782599776983,-0.0011589201167225838,0.0010097026824951172
1782943325289132500,3.653132568359375,-0.0016544968821108341,-0.0005921991541981697,0.0019426075741648674
1782943325299117600,3.66311767578125,-0.0010969964787364006,0.0015439996495842934,-0.0022760340943932533
1782943325309101600,3.6731015625,-0.0009167003445327282,0.0017914073541760445,-0.0002680104225873947
1782943325319086600,3.683086669921875,-0.0017131357453763485,0.0004055015742778778,-0.00013619568198919296
1782943325329071600,3.693071533203125,0.00015746871940791607,0.0013458635658025742,0.0013554408214986324
1782943325339056400,3.703056396484375,-0.00047672679647803307,-0.002721227705478668,0.0018369234167039394
1782943325349041700,3.713041748046875,-0.000527593307197094,-0.00047218799591064453,-0.0026092245243489742
1782943325359026700,3.723026611328125,0.0009066562633961439,-0.0016194069758057594,0.00100629311054945
1782943325369011700,3.73301171875,-0.00044276751577854156,-0.001249494031071663,-0.00028241053223609924
1782943325378996700,3.742996826171875,-0.00070578558370471,-0.0032405899837613106,0.0021744598634541035
1782943325388981500,3.7529814453125,0.0007938405033200979,0.0012023616582155228,-0.000006402842700481415
1782943325398965500,3.762965576171875,-0.0015885550528764725,0.00018706265836954117,0.0014156810939311981
1782943325408950500,3.772950439453125,-0.0015067961066961288,-0.0011096308007836342,0.000647359061986208
1782943325418935600,3.782935546875,0.0008287134114652872,-0.00019767135381698608,-0.0010957936756312847
1782943325428920600,3.792920654296875,0.0021562990732491016,-0.001106875017285347,-0.003695837687700987
1782943325438905600,3.802905517578125,0.0006163604557514191,-0.001632416620850563,0.0006162095814943314
1782943325448890600,3.812890625,-0.00023105740547180176,-0.0018555894494056702,0.003343819174915552
1782943325458875600,3.822875732421875,-0.00041803251951932907,-0.00032330118119716644,-0.00011664256453514099
1782943325468860700,3.832860595703125,-0.0022513526491820812,0.0005542105063796043,0.0026852693408727646
1782943325478845700,3.842845703125,0.0007900530472397804,-0.0003336770460009575,0.0017681866884231567
1782943325488828700,3.85282861328125,0.001292325323447585,0.000608549453318119,-0.0011490397155284882
1782943325498813700,3.862813720703125,0.0016379391308873892,-0.002058601938188076,-0.000060696620494127274
1782943325508798700,3.872798828125,0.0023876188788563013,0.001394985243678093,-0.0007360745221376419
1782943325518783700,3.88278369140625,-0.0006142961792647839,0.0015566386282444,0.00031241215765476227
1782943325528768800,3.892768798828125,0.001016214955598116,-0.001052199862897396,0.001558089628815651
1782943325538753800,3.90275390625,-0.002080122008919716,0.0014683641493320465,0.0009828242473304272
1782943325548738800,3.91273876953125,0.0005265797954052687,0.002899014391005039,0.0007415418513119221
1782943325558723600,3.9227236328125,-0.0008580535650253296,0.0006949808448553085,-0.0010214271023869514
1782943325568707600,3.93270751953125,-0.0009051915258169174,-0.0005897283554077148,-0.0013987971469759941
1782943325578692600,3.942692626953125,-0.0013088756240904331,0.0019126636907458305,-0.00047820014879107475
1782943325588677600,3.952677734375,-0.0015155370347201824,-0.000944109633564949,0.0010525849647819996
1782943325598662700,3.96266259765625,0.0008597727864980698,-0.0007195351645350456,0.0007463209331035614
1782943325608648000,3.97264794921875,0.002320250030606985,0.0007060542702674866,-0.00019377470016479492
1782943325618632700,3.9826328125,-0.00013983529061079025,0.0009447988122701645,-0.00032267067581415176
1782943325628617700,3.99261767578125,0.0006612434517592192,-0.00013218354433774948,0.0017860201187431812
1782943325638602800,4.002602783203125,-0.00008095148950815201,-0.00003607477992773056,-0.0009608925320208073
1782943325648587800,4.012587890625,-0.0012657917104661465,0.002592732198536396,-0.001843996811658144
1782943325658571800,4.02257177734375,-0.0008764751255512238,-0.0007334640249609947,0.002295353915542364
1782943325668556800,4.032556884765625,-0.0003054933622479439,0.0008569760248064995,-0.0013470519334077835
1782943325678541600,4.04254150390625,-0.0019631031900644302,-0.002084173262119293,0.00003946758806705475
1782943325688526600,4.052526611328125,0.0004981905221939087,-0.0008151773363351822,-0.0005472265183925629
1782943325698512000,4.062511962890625,-0.0014813360758125782,0.00047739874571561813,0.0018104552291333675
1782943325708497000,4.072496826171875,0.0003626365214586258,0.0007937820628285408,-0.0007075630128383636
1782943325718481700,4.082481689453125,0.0008288549724966288,-0.0029921578243374825,0.0008882726542651653
1782943325728466700,4.092466796875,-0.0034769438207149506,0.00001588277518749237,-0.0015964568592607975
1782943325738451700,4.10245166015625,-0.0009188088588416576,0.001795940101146698,0.0018510203808546066
1782943325748435700,4.112435791015625,-0.0018005813471972942,0.0003144238144159317,-0.0012835203669965267
1782943325758420700,4.122420654296875,-0.0001937500201165676,0.0018215905874967575,0.00039914902299642563
1782943325768405800,4.13240576171875,-0.00017191190272569656,0.0015805745497345924,-0.0019489596597850323
1782943325778390500,4.142390625,-0.00037565361708402634,0.0003373315557837486,-0.0010036500170826912
1782943325788375600,4.15237548828125,-0.0017314692959189415,-0.0006957082077860832,-0.001905396580696106
1782943325798360800,4.16236083984375,-0.0011931243352591991,0.0004739789292216301,0.0017623850144445896
1782943325808345900,4.172345947265625,0.0010934656020253897,0.0008787801489233971,-0.0013857381418347359
1782943325818331000,4.182330810546875,0.0020331102423369884,0.001032056286931038,-0.000436185859143734
1782943325828315600,4.192315673828125,-0.001618882641196251,0.0005742590874433517,0.0010490589775145054
1782943325838299600,4.202299560546875,0.0010750379879027605,0.0022661807015538216,-0.0022722063586115837
1782943325848284700,4.21228466796875,0.0007669103797525167,0.00051115732640028,-0.0007075993344187737
1782943325858269700,4.222269775390625,0.0011360317002981901,-0.0011599203571677208,-0.0031584245152771473
1782943325868254700,4.232254638671875,0.002378928940743208,0.0006944388151168823,0.0011409828439354897
1782943325878239700,4.24223974609375,-0.0003914814442396164,-0.001640036702156067,-0.00024373643100261688
1782943325888224800,4.252224853515625,-0.0007451493293046951,0.0006265798583626747,0.0013690735213458538
1782943325898209800,4.262209716796875,0.002486511366441846,0.0037175649777054787,-0.0002025342546403408
1782943325908194800,4.27219482421875,0.000016695819795131683,-0.001044698990881443,-0.00015592901036143303
1782943325918179800,4.282179931640625,0.0009695740882307291,-0.0006341719999909401,0.0009140283800661564
1782943325928163800,4.292163818359375,-0.0016059689223766327,0.0013360343873500824,0.00018458859995007515
1782943325938148900,4.30214892578125,0.00039118644781410694,0.0001229792833328247,-0.0006886026822030544
1782943325948133600,4.312133544921875,-0.00023465650156140327,-0.0008554663509130478,0.0015015807002782822
1782943325958118700,4.32211865234375,0.00041129300370812416,0.0036775507032871246,0.0013346686027944088
1782943325968103700,4.332103759765625,0.002000134903937578,-0.0011768601834774017,0.0013644960708916187
1782943325978088700,4.342088623046875,-0.0006058355793356895,-0.00013273581862449646,-0.003064374905079603
1782943325988073700,4.35207373046875,-0.00027400534600019455,0.00020468700677156448,0.0003932071849703789
1782943325998058800,4.362058837890625,-0.00045781536027789116,-0.0017493413761258125,0.0003567719832062721
1782943326008042800,4.372042724609375,-0.0007227999158203602,-0.0009131086990237236,-0.0013098344206809998
1782943326018027800,4.38202783203125,0.0009209741838276386,-0.0008425340056419373,0.0011038403026759624
1782943326028012800,4.3920126953125,0.000309512484818697,0.0006693433970212936,-0.0004959208890795708
1782943326037997800,4.401997802734375,-0.0006691580638289452,0.0027099698781967163,-0.0000029476359486579895
1782943326047982600,4.411982666015625,-0.0003266753628849983,0.0006833048537373543,-0.002417636103928089
1782943326057967600,4.421967529296875,-0.0025689206086099148,-0.0003132140263915062,0.0004472816362977028
1782943326067952600,4.43195263671875,-0.0018503996543586254,-0.002212047576904297,-0.00033089378848671913
1782943326077938000,4.44193798828125,0.001303967321291566,0.0015222448855638504,-0.0009239348582923412
1782943326087922700,4.451922607421875,-0.0006366781890392303,-0.000292433425784111,-0.0008107502944767475
1782943326097907000,4.461906982421875,0.00023948238231241703,-0.0021565593779087067,0.00003745127469301224
1782943326107891700,4.4718916015625,0.0004775689449161291,-0.0015959637239575386,-0.000725810881704092
1782943326117876700,4.481876708984375,-0.003523255232721567,-0.001293465495109558,-0.0011264658533036709
1782943326127861800,4.49186181640625,0.00282225850969553,-0.002015181817114353,-0.00034829042851924896
1782943326137846800,4.5018466796875,-0.0006325831636786461,0.0008251005783677101,0.00012484006583690643
1782943326147831600,4.51183154296875,-0.0011300616897642612,0.0019657332450151443,-0.000809929333627224
1782943326157816600,4.521816650390625,0.00046212528832256794,-0.0002895072102546692,-0.0006229509599506855
1782943326167801600,4.531801513671875,-0.0017967680469155312,-0.0010415837168693542,0.0017115762457251549
1782943326177787000,4.541786865234375,0.00035514519549906254,-0.0011280151084065437,0.0011412897147238255
1782943326187771000,4.55177099609375,0.0010190713219344616,-0.0000049602240324020386,0.0011823023669421673
1782943326197756000,4.561755859375,-0.0001942063681781292,0.0015117423608899117,0.002181416377425194
1782943326207740700,4.57174072265625,0.0004958186764270067,0.002235855907201767,-0.000021283980458974838
1782943326217725700,4.5817255859375,0.0011212166864424944,-0.0031962981447577477,-0.001564512960612774
1782943326227710700,4.591710693359375,-0.0022098650224506855,-0.0001584310084581375,0.003551685716956854
1782943326237695700,4.60169580078125,-0.0014439765363931656,0.00008011516183614731,4.153698682785034e-7
1782943326247680800,4.6116806640625,-0.0009393072687089443,0.0006620157510042191,-0.0013767052441835403
1782943326257665500,4.62166552734375,0.0007931329309940338,-0.0011276332661509514,-0.0002519791014492512
1782943326267650800,4.63165087890625,0.000216558575630188,-0.0021446943283081055,-0.002310868352651596
1782943326277634600,4.641634521484375,-0.0004176381044089794,-0.001104407012462616,-0.0003654398024082184
1782943326287619800,4.651619873046875,-0.0012826328165829182,-0.0022479677572846413,-0.00006556743755936623
1782943326297604900,4.66160498046875,-0.00024116039276123047,0.000019086524844169617,-0.000256913248449564
1782943326307590000,4.67158984375,-0.0007002893835306168,-0.0014576362445950508,-0.00011683069169521332
1782943326317574700,4.68157470703125,-0.0014018192887306213,-0.0010130815207958221,0.000510562676936388
1782943326327559700,4.6915595703125,-0.001742970198392868,0.0008426094427704811,0.00045064138248562813
1782943326337544700,4.701544677734375,-0.0014960425905883312,-0.001555202528834343,0.001196587923914194
1782943326347529700,4.71152978515625,-0.0008598137646913528,-0.0006806207820773125,-0.0011184983886778355
1782943326357514500,4.721514404296875,-0.0012243813835084438,0.0007063066586852074,0.0009670318104326725
1782943326367498800,4.731498779296875,0.0011852465104311705,0.0008538458496332169,0.00024291826412081718
1782943326377483500,4.7414833984375,-0.001645861193537712,0.00036935415118932724,0.0004469519481062889
1782943326387468800,4.75146875,-0.0003385157324373722,0.0015488676726818085,0.00003922171890735626
1782943326397453800,4.761453857421875,-0.00014290213584899902,0.0006156917661428452,0.00011429004371166229
1782943326407438800,4.77143896484375,-0.00007392605766654015,0.000133393332362175,0.0036419129464775324
1782943326417423600,4.781423583984375,-0.0011213654652237892,-0.0017429478466510773,0.0009744525887072086
1782943326427408600,4.79140869140625,-0.00023240270093083382,-0.0028140712529420853,-0.001550224144011736
1782943326437393700,4.8013935546875,-0.002392084803432226,0.0007125735282897949,0.000349435955286026
1782943326447378700,4.811378662109375,0.0015336810611188412,-0.0010560313239693642,-0.0013784226030111313
1782943326457362700,4.82136279296875,0.00042672851122915745,0.0020145224407315254,0.0014979597181081772
1782943326467347700,4.83134765625,-0.0009597130119800568,0.0005015814676880836,-0.0011103404685854912
1782943326477332700,4.841332763671875,0.00015480839647352695,-0.00005649123340845108,-0.0031618126668035984
1782943326487317800,4.85131787109375,0.0001755810808390379,0.00014617573469877243,0.002292873803526163
1782943326497302800,4.861302734375,-0.002633655909448862,-0.00024406518787145615,-0.0012083165347576141
1782943326507287800,4.871287841796875,0.00021352944895625114,-0.00183024350553751,0.000006350688636302948
1782943326517272800,4.88127294921875,0.00011881091631948948,0.0008967733010649681,0.000264020636677742
1782943326527257600,4.891257568359375,0.000914563424885273,-0.0009181713685393333,-0.00015942193567752838
1782943326537242600,4.90124267578125,0.00019731256179511547,0.00021065212786197662,0.0004934049211442471
1782943326547226600,4.9112265625,0.0013509937562048435,-0.00007963273674249649,0.0002944669686257839
1782943326557211600,4.921211669921875,-0.00017874222248792648,-0.0003598267212510109,0.0024486323818564415
1782943326567196700,4.93119677734375,-0.0010362803004682064,0.0005195494741201401,0.002643842250108719
1782943326577181700,4.941181640625,-0.00233079819008708,0.0013917014002799988,-0.00010441150516271591
1782943326587166700,4.951166748046875,-0.0004796348512172699,-0.00003681797534227371,0.0014418200589716434
1782943326597151700,4.96115185546875,0.002397537464275956,-0.001895827241241932,0.0003416738472878933
1782943326607136800,4.97113671875,-0.0013497965410351753,0.0005857059732079506,0.00010971259325742722
1782943326617121800,4.981121826171875,0.0025857025757431984,0.00027105025947093964,-0.0008054845966398716
1782943326627106600,4.9911064453125,-0.0007690815255045891,0.00013602804392576218,-0.0036087282933294773
1782943326637090600,5.001090576171875,0.00017587724141776562,-0.0005587758496403694,0.001422341912984848
1782943326647075600,5.01107568359375,0.001280290074646473,-0.0018171193078160286,0.0017933202907443047
1782943326657060600,5.021060546875,-0.002411935944110155,-0.0011591166257858276,0.0015610605478286743
1782943326667046000,5.0310458984375,-0.002490499522536993,0.0009391875937581062,-0.0011622882448136806
1782943326677031000,5.041031005859375,-0.000269393902271986,-0.00043851975351572037,0.0010286136530339718
1782943326687015700,5.051015625,0.00016203825362026691,0.0004123607650399208,-0.002210855484008789
1782943326697000700,5.061000732421875,-0.0028992285951972008,0.0017299512401223183,-0.0007232245989143848
1782943326706985700,5.07098583984375,-0.0013396814465522766,-0.0011031199246644974,0.0013894611038267612
1782943326716970800,5.080970703125,-0.00043035298585891724,0.0004139132797718048,0.0009566997177898884
1782943326726954800,5.090954833984375,0.001793120289221406,0.00038275495171546936,-0.0011362782679498196
1782943326736939800,5.100939697265625,-0.00015901122242212296,0.00011263322085142136,-0.003212905954569578
1782943326746924500,5.110924560546875,0.0018865626771003008,0.0005661696195602417,0.0031595053151249886
1782943326756909600,5.12090966796875,0.0009725622367113829,-0.0029609501361846924,0.001965234987437725
1782943326766894800,5.130894775390625,-0.00008125044405460358,0.0007895790040493011,-0.0005136351101100445
1782943326776879900,5.1408798828125,-0.0018238076008856297,0.0019251508638262749,-0.0012574093416333199
1782943326786864600,5.15086474609375,-0.000378509983420372,-0.0005763564258813858,0.0002379552461206913
1782943326796849700,5.160849609375,0.0012576328590512276,-0.0015569142997264862,-0.0013703461736440659
1782943326806834700,5.170834716796875,0.0022235612850636244,0.00032434239983558655,0.0010344884358346462
1782943326816818700,5.180818603515625,0.0003392177168279886,-0.0011071935296058655,-0.0019480693154036999
1782943326826803700,5.1908037109375,0.0008082003332674503,-0.0005505923181772232,0.0015936684794723988
1782943326836788700,5.200788818359375,-0.0022557093761861324,-0.0008493531495332718,-0.00015635928139090538
1782943326846773500,5.2107734375,0.0006383475847542286,-0.0017694756388664246,0.0003669518046081066
1782943326856758800,5.2207587890625,0.000846122158691287,0.0009619854390621185,0.0014756121672689915
1782943326866743800,5.230743896484375,-0.0001413780264556408,-0.0009432397782802582,0.0015448546037077904
1782943326876728800,5.240728759765625,0.0004757505375891924,-0.0006424514576792717,-0.000392962247133255
1782943326886713900,5.2507138671875,0.00007174909114837646,0.0028026141226291656,-0.001260620541870594
1782943326896698600,5.26069873046875,0.0002084576990455389,0.0006431005895137787,-0.0035154204815626144
1782943326906682600,5.2706826171875,0.0005083295982331038,0.000007936730980873108,-0.0022474899888038635
1782943326916667600,5.280667724609375,0.0011666088830679655,-0.0011114347726106644,0.00004137121140956879
1782943326926652700,5.290652587890625,-0.0033200187608599663,0.0006427885964512825,-0.0012832852080464363
1782943326936637700,5.3006376953125,0.0005412038881331682,0.00018357671797275543,0.00034699542447924614
1782943326946622700,5.310622802734375,-0.0002494887448847294,-0.001428169198334217,0.00005830870941281319
1782943326956607700,5.320607666015625,-0.000055023934692144394,0.0007760114967823029,0.0015017855912446976
1782943326966592800,5.3305927734375,0.0015426063910126686,0.0034032203257083893,-0.0021611261181533337
1782943326976577800,5.340577880859375,0.0008397751953452826,-0.0008247094228863716,-0.0012994292192161083
1782943326986562800,5.350562744140625,-0.0016963528469204903,0.0006810417398810387,0.002109683118760586
1782943326996546800,5.360546875,0.0007828399538993835,0.0004577087238430977,-0.0017955373041331768
1782943327006531800,5.37053173828125,0.000933308620005846,0.0009101796895265579,-0.0014610434882342815
1782943327016516600,5.3805166015625,-0.0009063100442290306,0.0013481918722391129,-0.0023220619186758995
1782943327026501600,5.390501708984375,0.0005664178170263767,0.00003392249345779419,0.0022892015986144543
1782943327036486700,5.400486572265625,-0.001683959737420082,0.0012547848746180534,-0.0023186146281659603
1782943327046472000,5.410471923828125,-0.0007273522205650806,-0.00004750024527311325,0.0007464168593287468
1782943327056456700,5.420456787109375,-0.0007566167041659355,-0.001186818815767765,0.0015504295006394386
1782943327066441700,5.430441650390625,0.0004790902603417635,-0.0014296993613243103,0.001983725931495428
1782943327076426800,5.4404267578125,0.00019595562480390072,-0.0009606834501028061,-0.002830402459949255
1782943327086410800,5.45041064453125,0.0010170082096010447,0.000058241188526153564,0.0007185260765254498
1782943327096395800,5.460395751953125,-0.0003921426832675934,0.002235627733170986,0.0008688247762620449
1782943327106380800,5.470380859375,-0.0006701764650642872,0.003626064397394657,0.00133620947599411
1782943327116365600,5.480365478515625,-0.0012891688384115696,-0.0005666483193635941,-0.0008030030876398087
1782943327126350600,5.4903505859375,0.001958289882168174,-0.000806865282356739,0.00017650797963142395
1782943327136335600,5.500335693359375,0.0012761298567056656,-0.0011342354118824005,-0.0030043022707104683
1782943327146321000,5.51032080078125,-0.001245351042598486,0.0004380950704216957,0.0024402644485235214
1782943327156305700,5.5203056640625,-0.0012353137135505676,-0.001269870437681675,-0.0002247607335448265
1782943327166290700,5.530290771484375,0.0010289056226611137,-0.0007241889834403992,0.0005259844474494457
1782943327176274700,5.540274658203125,-0.0007217861711978912,0.001099228858947754,-0.0010270914062857628
1782943327186259700,5.550259765625,-0.0003566667437553406,-0.0012360978871583939,-0.0014161793515086174
1782943327196244700,5.56024462890625,-0.0021647526882588863,-0.000773782841861248,-0.000022830907255411148
1782943327206229800,5.570229736328125,-0.0015919064171612263,0.0000430084764957428,-0.00046970928087830544
1782943327216214800,5.58021484375,-0.0006600343622267246,-0.0003592502325773239,0.0004307343624532223
1782943327226199600,5.590199462890625,-0.0005231481045484543,-0.0009589940309524536,0.000522613525390625
1782943327236184800,5.600184814453125,-0.0006799753755331039,-0.0004591047763824463,-0.0023150299675762653
1782943327246169900,5.610169921875,0.00022363499738276005,-0.00048333965241909027,-0.0024788142181932926
1782943327256155000,5.62015478515625,0.00110537838190794,-0.000012646429240703583,-0.0001419615000486374
1782943327266139000,5.630138916015625,0.0012603744398802519,0.002011355943977833,-0.0011102869175374508
1782943327276123600,5.64012353515625,0.00016000191681087017,-0.0006919968873262405,0.0016228621825575829
1782943327286108700,5.650108642578125,-0.0005851504392921925,0.00024863146245479584,0.0015528211370110512
1782943327296093700,5.66009375,0.002581212902441621,0.000725969672203064,-0.0015571480616927147
1782943327306078700,5.67007861328125,0.00020061316899955273,0.0008394205942749977,-0.0025861943140625954
1782943327316063700,5.680063720703125,0.0012669742573052645,0.00048126373440027237,0.0000593382865190506
1782943327326048500,5.690048583984375,-0.0005519646219909191,0.0013952599838376045,-0.0006924723275005817
1782943327336033800,5.70003369140625,0.0011753728613257408,0.001353750005364418,-0.0010035289451479912
1782943327346018800,5.710018798828125,0.0006664427928626537,-0.00004787184298038483,-0.001628040336072445
1782943327356002800,5.7200029296875,0.0008829091675579548,-0.00021854694932699203,-0.0013850857503712177
1782943327365987800,5.72998779296875,0.0005830372683703899,0.0013721585273742676,0.000508155208081007
1782943327375972900,5.739972900390625,0.000036516692489385605,-0.0001435084268450737,0.000044335611164569855
1782943327385957600,5.74995751953125,0.001081008231267333,-0.0004388531669974327,0.0009961491450667381
1782943327395942700,5.759942626953125,-0.0014977594837546349,0.001657199114561081,0.0001331046223640442
1782943327405927700,5.769927734375,0.0016567546408623457,-0.001050969585776329,-0.00014359783381223679
1782943327415912700,5.77991259765625,0.0008548649493604898,-0.0008607488125562668,0.0012094760313630104
1782943327425897700,5.789897705078125,-0.0004626009613275528,0.0006601829081773758,-0.0014334446750581264
1782943327435882800,5.7998828125,-0.0016413545235991478,-0.00026291143149137497,0.000016843900084495544
1782943327445867800,5.80986767578125,0.0034476802684366703,0.0003426913172006607,-0.0008939565159380436
1782943327455851800,5.819851806640625,0.0015190443955361843,-0.00176168791949749,0.0025858324952423573
1782943327465836800,5.8298369140625,0.0005110378842800856,0.00039653852581977844,-0.000581731554120779
1782943327475821800,5.83982177734375,0.0012727028224617243,-0.0005707060918211937,0.0004996326752007008
1782943327485806600,5.849806640625,-0.00010574935004115105,0.002370222471654415,0.00038431771099567413
1782943327495795700,5.859795654296875,-0.001501279417425394,-0.0002135634422302246,-0.0000022207386791706085
1782943327505780700,5.86978076171875,-0.0010237745009362698,0.0004200022667646408,-0.0007460415363311768
1782943327515765800,5.879765869140625,-0.0008489256724715233,-0.0007955450564622879,-0.0007942169904708862
1782943327525750800,5.889750732421875,0.0005095528904348612,-0.000027223490178585052,0.0009685293771326542
1782943327535735800,5.89973583984375,-0.0008484502322971821,-0.002097511664032936,-0.00047376658767461777
1782943327545719800,5.9097197265625,-0.002447145525366068,-0.0008112052455544472,0.0016037649475038052
1782943327555704800,5.919704833984375,-0.0002442663535475731,-0.0021372027695178986,0.0019884523935616016
1782943327565689900,5.92968994140625,-0.0014304383657872677,-0.0021619703620672226,-0.0004896195605397224
1782943327575675000,5.9396748046875,-0.00010495958849787712,-0.0007858350872993469,-0.00032326066866517067
1782943327585659600,5.94965966796875,-0.0008719498291611671,0.00041658151894807816,0.00042322278022766113
1782943327595644700,5.959644775390625,0.0019200346432626247,0.0017401818186044693,0.0010943780653178692
1782943327605629700,5.969629638671875,0.0004643509164452553,0.00002936646342277527,0.000009938608855009079
1782943327615614700,5.97961474609375,-0.0005385647527873516,0.0006462251767516136,0.000012254808098077774
1782943327625599700,5.989599853515625,-0.0005193897522985935,-0.00013061892241239548,-0.0003480706363916397
1782943327635584000,5.999583984375,0.00003726780414581299,-0.0011663911864161491,-0.0003044423647224903
1782943327645568800,6.00956884765625,-0.001850114669650793,0.0002655908465385437,0.00009662937372922897
1782943327655553800,6.0195537109375,0.0021776205394417048,0.0011651702225208282,0.00007525645196437836
1782943327665538800,6.029538818359375,0.0012553678825497627,-0.0012439247220754623,0.0001194649375975132
1782943327675523800,6.03952392578125,-0.00005225185304880142,0.0018455376848578453,0.000497936736792326
1782943327685508600,6.049508544921875,0.002240197267383337,-0.0030650654807686806,0.0010729129426181316
1782943327695493600,6.05949365234375,-0.0012315576896071434,0.0018643075600266457,0.00136942183598876
1782943327705478700,6.069478759765625,-0.002108270302414894,-0.000944795086979866,-0.0007312791422009468
1782943327715464000,6.0794638671875,-0.0003466871567070484,0.001356794498860836,-0.001313670538365841
1782943327725447700,6.08944775390625,0.0005430749151855707,0.0010638469830155373,0.0005441503599286079
1782943327735433000,6.099432861328125,-0.0008036741055548191,-0.0004698382690548897,0.0002225884236395359
1782943327745417700,6.109417724609375,0.00008715363219380379,-0.0003643771633505821,0.002268428448587656
1782943327755402800,6.11940283203125,0.0014648137148469687,0.001309046521782875,-0.0008850577287375927
1782943327765387800,6.1293876953125,-0.0002720998600125313,0.001080547459423542,0.0005525164306163788
1782943327775372800,6.139372802734375,0.0009738472290337086,-0.0006650146096944809,-0.0009098192676901817
1782943327785357800,6.14935791015625,-0.00043070409446954727,0.00006895232945680618,-0.0006118118762969971
1782943327795342600,6.159342529296875,-0.0018120021559298038,0.0013653803616762161,0.0004755482077598572
1782943327805327600,6.16932763671875,-0.00028547830879688263,0.0019249096512794495,-0.0008776034228503704
1782943327815313000,6.17931298828125,-0.0008944673463702202,0.000565793365240097,-0.00023682927712798119
1782943327825297000,6.189296875,-0.0017349612899124622,-0.0004179785028100014,0.0011520092375576496
1782943327835282000,6.199281982421875,0.0018731416203081608,-0.0006301049143075943,0.000046741683036088943
1782943327845267000,6.209266845703125,0.00037910835817456245,0.0007137265056371689,0.0004994790069758892
1782943327855251700,6.219251708984375,0.0005795110482722521,-0.0009676171466708183,0.000012782402336597443
1782943327865236700,6.22923681640625,0.0014375816099345684,0.0014220373705029488,-0.0005789720453321934
1782943327875221800,6.2392216796875,-0.0026381448842585087,-0.0006179660558700562,0.002214220352470875
1782943327885206800,6.249206787109375,-0.0011092238128185272,0.0014110961928963661,0.003714911639690399
1782943327895191600,6.259191650390625,-0.0004229969345033169,-0.0001480747014284134,-0.001406229566782713
1782943327905176800,6.2691767578125,0.0005597097333520651,0.0008617965504527092,-0.0011191410012543201
1782943327915160600,6.27916064453125,0.0012066788040101528,-0.0029805386438965797,-0.0007787924259901047
1782943327925145900,6.289145751953125,-0.000468449667096138,0.00046186335384845734,0.00028673838824033737
1782943327935131000,6.299130859375,-0.00029136333614587784,0.0004892069846391678,-0.0003603026270866394
1782943327945116000,6.309115966796875,-0.0005997573025524616,0.0003416677936911583,-0.0005003856495022774
1782943327955100700,6.3191005859375,-0.0010185232385993004,0.000616203062236309,0.00041600875556468964
1782943327965085700,6.329085693359375,0.0004403563216328621,-0.00035718176513910294,0.0009734085761010647
1782943327975070700,6.33907080078125,0.0011325168889015913,-0.0017483178526163101,-0.0005026287399232388
1782943327985055700,6.3490556640625,0.0017144177109003067,0.0014711776748299599,-0.0011090305633842945
1782943327995040800,6.359040771484375,-0.0021442603319883347,-0.00015876628458499908,-0.00040745316073298454
1782943328005024800,6.369024658203125,0.0023186649195849895,-0.0008123060688376427,0.0020764777436852455
1782943328015009800,6.379009765625,0.0001281173899769783,0.0020083654671907425,-0.0017338148318231106
1782943328024994800,6.388994873046875,-0.0003933291882276535,0.00007677450776100159,0.0005692867562174797
1782943328034979800,6.398979736328125,0.0007480785716325045,-0.0003691846504807472,0.0024562175385653973
1782943328044964900,6.40896484375,-0.0008396981284022331,0.0008843652904033661,-0.00008150842040777206
1782943328054950000,6.418949951171875,-0.0006372169591486454,-0.0018750596791505814,0.00042674317955970764
1782943328064934700,6.4289345703125,0.0008014224004000425,-0.0006774365901947021,0.0025532771833240986
1782943328074919700,6.438919677734375,-0.0005962043069303036,-0.0010082004591822624,0.0014946707524359226
1782943328084904700,6.44890478515625,0.0005796547047793865,0.0010884320363402367,0.0018335571512579918
1782943328094890000,6.458889892578125,-0.0003975098952651024,-0.0006184037774801254,-0.0007786750793457031
1782943328104873700,6.468873779296875,0.0004967798013240099,0.0005920026451349258,0.0008714199066162109
1782943328114858800,6.478858642578125,-0.00023331493139266968,0.0014072190970182419,-0.0009553376585245132
1782943328124843800,6.48884375,-0.002062374260276556,0.001185378059744835,-0.0011153938248753548
1782943328134828800,6.498828857421875,0.0018269808497279882,0.0013743340969085693,-0.001143215224146843
1782943328144813800,6.508813720703125,0.00012735137715935707,0.000051808543503284454,0.0004986235871911049
1782943328154798800,6.518798828125,0.0010907039977610111,0.0015190225094556808,-0.0013309624046087265
1782943328164783600,6.52878369140625,0.0012915064580738544,-0.0010623801499605179,-0.00195467472076416
1782943328174768600,6.5387685546875,-0.0016800020821392536,-0.0021927151829004288,0.0008121863938868046
1782943328184753700,6.548753662109375,-3.46451997756958e-7,0.002728540450334549,-0.003127694595605135
1782943328194737700,6.558737548828125,0.0010507483966648579,-0.0015802392736077309,-0.0007592784240841866
1782943328204723000,6.568722900390625,-0.0017170747742056847,0.0017007747665047646,-0.0015457095578312874
1782943328214708000,6.5787080078125,0.0012008596677333117,0.0038554733619093895,-0.0008812262676656246
1782943328224692700,6.588692626953125,0.0013284250162541866,-0.00038614310324192047,0.0020019114017486572
1782943328234677800,6.598677734375,0.000361644197255373,0.00016050413250923157,-0.002095040399581194
1782943328244662800,6.608662841796875,0.001177104189991951,-0.00031913165003061295,0.0009532137773931026
1782943328254647800,6.618647705078125,0.00046347035095095634,-0.000913131982088089,0.0012747906148433685
1782943328264632600,6.628632568359375,-0.00011177221313118935,0.001150817610323429,0.00018875347450375557
1782943328274617600,6.63861767578125,0.0024956720881164074,0.0008294787257909775,0.0010736025869846344
1782943328284601600,6.6486015625,-0.0013368832878768444,-0.0011814748868346214,0.0015756082721054554
1782943328294586600,6.658586669921875,0.0008748411200940609,-0.0008828863501548767,0.00019706180319190025
1782943328304572000,6.668572021484375,-0.0012740637175738811,0.0018215542659163475,-0.00010334281250834465
1782943328314557000,6.678556884765625,-0.00045444024726748466,0.0017786528915166855,0.0018096757121384144
1782943328324541700,6.688541748046875,-0.0001878580078482628,-0.0006823735311627388,0.0015670619904994965
1782943328334526700,6.698526611328125,0.0004493696615099907,0.0023365430533885956,0.0008577047847211361
1782943328344511700,6.70851171875,0.0016813480760902166,0.0006265277042984962,-0.0003638877533376217
1782943328354496800,6.718496826171875,-0.00029556360095739365,-0.0007703471928834915,0.002041335217654705
1782943328364481800,6.728481689453125,0.0018522758036851883,0.0010712286457419395,-0.00022794445976614952
1782943328374466600,6.738466552734375,-0.00047874683514237404,-0.0019444674253463745,-0.0013737468980252743
1782943328384450600,6.748450439453125,-0.0004609040915966034,-0.0008224770426750183,-0.002036075573414564
1782943328394435800,6.758435791015625,-0.001679114531725645,0.0010548382997512817,-0.00042185187339782715
1782943328404420900,6.7684208984375,0.002184066688641906,-0.00025889836251735687,0.0009691175073385239
1782943328414406000,6.778406005859375,-0.00041866907849907875,-0.0018018446862697601,0.0007633878849446774
1782943328424391000,6.788390869140625,-0.00013237912207841873,-0.0009190067648887634,-0.00018176808953285217
1782943328434375700,6.798375732421875,0.0003230536822229624,0.0016835350543260574,-0.0009201765060424805
1782943328444360700,6.808360595703125,-0.0011976114474236965,-0.0013769697397947311,0.00009395554661750793
1782943328454345700,6.818345703125,-0.00021727336570620537,0.000999600626528263,-0.0011562160216271877
1782943328464330800,6.828330810546875,0.0012112462427467108,0.002887781709432602,-0.00001664925366640091
1782943328474314800,6.838314697265625,-0.0010457593016326427,-0.0013586487621068954,-0.0014734268188476562
1782943328484299800,6.8482998046875,-0.0011701290495693684,-0.0003895247355103493,0.00017640134319663048
1782943328494285000,6.85828515625,0.0005429836455732584,0.00359178613871336,-0.0001101326197385788
1782943328504270300,6.868270263671875,0.0022711087949573994,-0.0004192003980278969,0.0005447389557957649
1782943328514255400,6.87825537109375,0.0005398900248110294,0.000029332004487514496,0.0013125967234373093
1782943328524240100,6.888240234375,0.0013313814997673035,0.0007587717846035957,0.0009338953532278538
1782943328534225200,6.89822509765625,0.00044881762005388737,-0.0018926123157143593,-0.0009283930994570255
1782943328544210200,6.908210205078125,0.000521788140758872,0.0004906505346298218,-0.0011049606837332249
1782943328554195200,6.9181953125,-0.00035133352503180504,0.0007862793281674385,-0.0007181246764957905
1782943328564180200,6.92818017578125,0.0011387052945792675,0.0003484552726149559,0.0002917465753853321
1782943328574164200,6.938164306640625,0.0004801142495125532,-0.00034657493233680725,0.0014035338535904884
1782943328584149200,6.948149169921875,-0.0006647789850831032,0.0005072345957159996,0.0008109803311526775
1782943328594134300,6.95813427734375,0.000751968240365386,0.00016953423619270325,0.0013591116294264793
1782943328604119300,6.968119384765625,0.00009043887257575989,-0.0003178240731358528,-0.00036981282755732536
1782943328614104300,6.978104248046875,-0.0005402695387601852,-0.0018955748528242111,0.001596003770828247
1782943328624089300,6.98808935546875,-0.0012289630249142647,0.0009758453816175461,-0.00021894043311476707
1782943328634074000,6.99807421875,0.00027666776441037655,-0.0017139995470643044,0.0009678737260401249
1782943328644059100,7.00805908203125,-0.00044158659875392914,0.0009683361276984215,-0.0013818331062793732
1782943328654044200,7.018044189453125,0.0011157256085425615,0.00044962670654058456,0.0006801425479352474
1782943328664028200,7.028028076171875,-0.00001611793413758278,-0.0024654697626829147,0.0012625758536159992
1782943328674013200,7.03801318359375,0.0009514507837593555,-0.0026954421773552895,0.0007774457335472107
1782943328683998200,7.047998291015625,-0.00102275051176548,0.0019240770488977432,-0.001939244568347931
1782943328693983200,7.057983154296875,-0.000997418537735939,-0.003402138128876686,-0.00028645945712924004
1782943328703968300,7.06796826171875,-0.0004077949561178684,-0.000434044748544693,0.00034470995888113976
1782943328713953300,7.077953369140625,-0.00004643993452191353,0.0012850463390350342,-0.0028272499330341816
1782943328723938300,7.087938232421875,-0.0015332824550569057,-0.00020765513181686401,0.0018822839483618736
1782943328733923000,7.097923095703125,0.001203565625473857,0.0006974749267101288,-0.00045799557119607925
1782943328743908000,7.107908203125,-0.002455351408571005,-0.0008346410468220711,0.0004030046984553337
1782943328753893000,7.11789306640625,0.00007508136332035065,0.0008407747372984886,-0.0008715442381799221
1782943328763877000,7.127877197265625,0.0002971889916807413,0.00030148494988679886,-0.0008212109096348286
1782943328773862100,7.137862060546875,0.00028666225261986256,0.00010933540761470795,0.0009285700507462025
1782943328783847400,7.147847412109375,0.002727982122451067,-0.0009479392319917679,0.000015905126929283142
1782943328793832200,7.157832275390625,0.0009010324720293283,0.0010807672515511513,-0.000012207310646772385
1782943328803817200,7.167817138671875,0.00022565480321645737,-0.000018052756786346436,0.0009417370893061161
1782943328813802200,7.17780224609375,0.001809269655495882,0.0011080671101808548,-0.002420577220618725
1782943328823787300,7.187787353515625,0.0021368383895605803,0.0003107162192463875,0.0007864017970860004
1782943328833772300,7.197772216796875,0.0000956077128648758,0.0004317210987210274,-0.0023760758340358734
1782943328843757000,7.207757080078125,0.0003081278409808874,-0.000037794001400470734,0.0009797737002372742
1782943328853741000,7.217740966796875,-0.0014960826374590397,-0.0029038172215223312,-0.0022730673663318157
1782943328863726000,7.22772607421875,-0.0002143033780157566,0.00047147274017333984,0.0013024923391640186
1782943328873711000,7.237711181640625,-0.0026599024422466755,0.0003168666735291481,0.0024272650480270386
1782943328883696400,7.2476962890625,-0.0007719877175986767,0.0006127431988716125,-0.0011456320062279701
1782943328893681400,7.257681396484375,0.000040467362850904465,0.0017892830073833466,0.0019240756519138813
1782943328903666200,7.267666259765625,0.00010278495028614998,-0.0003039613366127014,0.001522471196949482
1782943328913651200,7.277651123046875,-0.00008706236258149147,-0.000516895204782486,0.0020714453421533108
1782943328923636200,7.28763623046875,-0.00048200925812125206,-0.0011957352980971336,-0.00253582326695323
1782943328933621200,7.297621337890625,-0.0014747804962098598,0.00048689451068639755,-0.0013704486191272736
1782943328943606000,7.30760595703125,-0.000888618640601635,-0.0005967449396848679,0.0021587726660072803
1782943328953590300,7.31759033203125,0.0006951731629669666,0.0004362044855952263,-0.0003311312757432461
1782943328963575000,7.327574951171875,-0.0017402875237166882,0.003565950319170952,-0.0008746827952563763
1782943328973560300,7.337560302734375,-0.002303497865796089,-0.0019882554188370705,-0.0004752716049551964
1782943328983545300,7.34754541015625,0.0009375691879540682,0.0012970203533768654,-0.0007527731359004974
1782943328993530400,7.3575302734375,-0.0001303134486079216,0.0012525254860520363,-0.0008131968788802624
1782943329003515100,7.36751513671875,0.0011157793924212456,-0.0019600465893745422,-0.00031198980286717415
1782943329013500200,7.377500244140625,-0.0003924681805074215,-0.00043919216841459274,-0.0007991031743586063
1782943329023485200,7.387485107421875,-0.00021110707893967628,0.00039251241832971573,0.0016818973235785961
1782943329033470200,7.39747021484375,0.0010992977768182755,0.0004276297986507416,-0.00018272269517183304
1782943329043454200,7.4074541015625,-0.00047409767284989357,0.00041697733104228973,-0.0006780708208680153
1782943329053439200,7.417439208984375,0.0013513730373233557,-0.001978718675673008,0.000339617021381855
1782943329063424000,7.427424072265625,-0.00005743931978940964,-0.001258866861462593,0.0016400385648012161
1782943329073409300,7.4374091796875,0.000056682154536247253,-0.002026566304266453,0.0010247398167848587
1782943329083394300,7.447394287109375,0.0010226108133792877,-0.0004374580457806587,0.002548068296164274
1782943329093379300,7.45737939453125,0.001145011279731989,-0.000927790068089962,0.0035617700777947903
1782943329103364400,7.4673642578125,0.0006560548208653927,-0.0013911807909607887,-0.000855881255120039
1782943329113349000,7.47734912109375,-0.0005005081184208393,0.0008022123947739601,-0.00004348810762166977
1782943329123334100,7.487334228515625,-0.00112209003418684,0.0015063527971506119,-0.00006399443373084068
1782943329133319200,7.497319091796875,0.0011267948430031538,-0.0003021266311407089,0.0003481674939393997
1782943329143304200,7.50730419921875,0.000933981966227293,-0.00007416028529405594,-0.0018878229893743992
1782943329153288200,7.5172880859375,0.0007570602465420961,-0.0007929150015115738,-0.0016400478780269623
1782943329163273200,7.527273193359375,-0.00255058566108346,0.0027602752670645714,0.0018252572044730186
1782943329173258200,7.53725830078125,-0.0010867351666092873,-0.0002578170970082283,0.0025906511582434177
1782943329183243300,7.5472431640625,-0.0005370588041841984,-0.001049840822815895,0.0007567983120679855
1782943329193228300,7.557228271484375,-0.00011476967483758926,-0.0009396327659487724,0.00033599231392145157
1782943329203213300,7.56721337890625,-0.00039546703919768333,-0.0017130142077803612,-0.0015023876912891865
1782943329213198000,7.577197998046875,-0.0014519579708576202,-0.0001042606309056282,-0.00027458369731903076
1782943329223183000,7.58718310546875,-0.0016186716966331005,-0.00002596341073513031,0.0014647268690168858
1782943329233168100,7.597168212890625,-0.0007196995429694653,-0.00002252962440252304,-0.0013961968943476677
1782943329243152100,7.607152099609375,-0.0019724504090845585,0.00006295740604400635,-0.0007578367367386818
1782943329253137200,7.61713720703125,-0.0013797786086797714,-0.0006433017551898956,0.0004506888799369335
1782943329263122400,7.627122314453125,-0.0015691290609538555,-0.0017186859622597694,0.0010275295935571194
1782943329273107200,7.637107177734375,0.0009821231942623854,-0.00010789930820465088,-0.00011356547474861145
1782943329283092200,7.64709228515625,-0.00035558268427848816,-0.0007406659424304962,-0.0009428737685084343
1782943329293077200,7.6570771484375,0.00004517426714301109,-0.0021866019815206528,0.0006829588674008846
1782943329303062300,7.667062255859375,0.00029204925522208214,0.0005940040573477745,-0.0006313114427030087
1782943329313047300,7.67704736328125,0.0016065025702118874,0.0008365828543901443,0.00009925616905093193
1782943329323032000,7.687031982421875,0.00009409338235855103,-0.0005631744861602783,0.00045771757140755653
1782943329333017000,7.69701708984375,0.0027889953926205635,-0.0003734556958079338,0.00027786754071712494
1782943329343001000,7.7070009765625,-0.0025770077481865883,0.00047529395669698715,-0.00037993350997567177
1782943329352986400,7.716986328125,-0.0012681614607572556,-0.0010086465626955032,0.0004850509576499462
1782943329362971400,7.726971435546875,0.00008951779454946518,0.0014992523938417435,-0.000864905770868063
1782943329372956200,7.7369560546875,0.0015101570170372725,0.002057090401649475,0.0012925099581480026
1782943329382941200,7.746941162109375,-0.0017122677527368069,-0.0014292532578110695,-0.0005400110967457294
1782943329392926200,7.75692626953125,-0.001435267273336649,0.0010216198861598969,-0.0009547811932861805
1782943329402911200,7.7669111328125,-0.00047519756481051445,-0.0018727034330368042,0.0013914639130234718
1782943329412896300,7.776896240234375,0.00034262053668498993,0.0007901499047875404,-0.002532355487346649
1782943329422881000,7.786881103515625,-0.0015918994322419167,-0.000458340160548687,-0.0002947673201560974
1782943329432866300,7.7968662109375,-0.0005944608710706234,-0.0010304581373929977,0.0021128240041434765
1782943329442850000,7.80685009765625,0.0008186122868210077,-0.0018765442073345184,-0.00032210443168878555
1782943329452835300,7.81683544921875,-0.001744067296385765,-0.0010217903181910515,-0.00182449072599411
1782943329462820400,7.8268203125,0.0002932511270046234,0.00020752474665641785,-0.000807696022093296
1782943329472805400,7.836805419921875,0.0015016470570117235,0.0010945983231067657,-0.002448352985084057
1782943329482790100,7.8467900390625,0.0004773952532559633,0.0032701343297958374,0.001101374626159668
1782943329492771300,7.856771240234375,0.0020153673831373453,-0.0005469582974910736,-0.0009574582800269127
1782943329502756400,7.86675634765625,0.0015189540572464466,-0.002244456671178341,0.0005466947332024574
1782943329512741600,7.87674169921875,-0.002827127929776907,-0.00044355541467666626,-0.0015420233830809593
1782943329522726700,7.8867265625,-0.001191148068755865,-0.0013945698738098145,0.002223686780780554
1782943329532710700,7.896710693359375,0.00043032970279455185,0.00021452270448207855,-0.0003128820098936558
1782943329542695400,7.9066953125,-0.0009875372052192688,0.0006797760725021362,0.0007300116121768951
1782943329552680400,7.916680419921875,0.0009136239532381296,-0.0011557908728718758,-0.001199812162667513
1782943329562665500,7.92666552734375,-0.0018869563937187195,0.0011901874095201492,0.0009189988486468792
1782943329572650500,7.936650390625,-0.0004363842308521271,-0.0008825371041893959,-0.0013326243497431278
1782943329582635500,7.946635498046875,-0.00004729675129055977,0.00017766747623682022,0.002403257880359888
1782943329592620300,7.956620361328125,-0.0017781304195523262,0.002377863973379135,0.0006997822783887386
1782943329602605600,7.96660546875,0.001638172660022974,-0.0022957175970077515,0.0012124408967792988
1782943329612590600,7.976590576171875,-0.00019600242376327515,0.0010559586808085442,-0.0035205399617552757
1782943329622575600,7.98657568359375,0.0010748577769845724,0.00012012384831905365,0.0005937772803008556
1782943329632559600,7.9965595703125,0.0009194714948534966,-0.0015415586531162262,0.00055277394130826
1782943329642544400,8.00654443359375,0.00025474652647972107,-0.0006387475878000259,-0.0000975700095295906
1782943329652529400,8.016529296875,0.0013392388354986906,0.0014330921694636345,0.00037342915311455727
1782943329662514400,8.026514404296876,-0.0010203220881521702,-0.0018607061356306076,0.002577727660536766
1782943329672499500,8.03649951171875,0.0010841249022632837,-0.003346688114106655,0.00039899442344903946
1782943329682484500,8.046484375,0.0009911805391311646,0.0013133110478520393,-0.0007107453420758247
1782943329692469200,8.05646923828125,0.0004733721725642681,0.0004364112392067909,0.0016137738712131977
1782943329702454500,8.06645458984375,-0.0007527470588684082,0.0007666433230042458,0.00004810187965631485
1782943329712439600,8.076439453125,-0.0003465237095952034,0.0017289090901613235,-0.0023545459844172
1782943329722424600,8.086424560546876,-0.001265580765902996,-0.004371860064566135,0.001040185336023569
1782943329732408600,8.09640869140625,0.001453975448384881,-0.0009950511157512665,0.0010212277993559837
1782943329742393600,8.1063935546875,-0.000016355887055397034,0.0008446602150797844,0.000947990920394659
1782943329752378400,8.11637841796875,-0.0010091057047247887,0.0010452261194586754,0.0004571191966533661
1782943329762363400,8.12636328125,0.0004204788710922003,-0.00021870993077754974,0.0016310405917465687
1782943329772348400,8.136348388671875,0.0007672740612179041,0.002803366631269455,-0.0007597976364195347
1782943329782333400,8.14633349609375,-0.0014221109449863434,0.0005601858720183372,0.00024181697517633438
1782943329792318500,8.156318359375,0.00029440736398100853,-0.0023575862869620323,-0.0006964248605072498
1782943329802303500,8.166303466796874,-0.0005367654375731945,0.00022461451590061188,-0.0026117698289453983
1782943329812288500,8.17628857421875,-0.0041925348341465,-0.000302744098007679,0.001571131870150566
1782943329822273500,8.1862734375,-0.0007503996603190899,-0.001651901751756668,-0.00039960676804184914
1782943329832257500,8.196257568359375,0.000039868056774139404,0.0019261026754975319,-0.0006662462837994099
1782943329842242600,8.20624267578125,-0.0011774632148444653,-0.0009889937937259674,0.001517013181000948
1782943329852227300,8.216227294921875,0.00046030362136662006,-0.00019767507910728455,0.00012166285887360573
1782943329862212400,8.22621240234375,0.0007295492105185986,-0.00007037632167339325,0.00046707503497600555
1782943329872197400,8.236197265625,-0.00248545641079545,0.0018280399963259697,0.0003909771330654621
1782943329882182400,8.246182373046874,-0.0015323110856115818,-0.001148841343820095,-0.0009797518141567707
1782943329892167700,8.256167724609375,-0.0006246096454560757,-0.0023112092167139053,0.0011436440981924534
1782943329902152400,8.26615234375,-0.0014949310570955276,-0.002265668474137783,-0.000673430971801281
1782943329912137500,8.276137451171875,-0.0013379203155636787,-0.00010914728045463562,-0.0008267201483249664
1782943329922122500,8.28612255859375,-0.00035255029797554016,0.0002096332609653473,-0.000070914626121521
1782943329932106500,8.2961064453125,-0.0013679685071110725,0.0006610751152038574,0.0013877223245799541
1782943329942091500,8.306091552734374,-0.00261565949767828,0.0012485682964324951,-0.0018861014395952225
1782943329952076500,8.31607666015625,-0.0005724658258259296,0.00044962018728256226,0.0008654030971229076
1782943329962061300,8.326061279296875,-0.0014382596127688885,0.000013394281268119812,0.0014856532216072083
1782943329972046300,8.33604638671875,-0.0019698902033269405,0.0022985273972153664,-0.00010315049439668655
1782943329982031600,8.346031494140625,0.0008216348942369223,0.0001573469489812851,-0.0011641536839306355
1782943329992016600,8.3560166015625,0.0014176995027810335,0.0019285371527075768,0.0015488732606172562
1782943330002001400,8.36600146484375,0.00045576575212180614,0.0006262511014938354,0.0008069165050983429
1782943330011986400,8.375986328125,-0.0025731055065989494,-0.0005737598985433578,0.002089378423988819
1782943330021971500,8.385971435546875,0.0004349350929260254,0.0026654424145817757,0.0020289248786866665
1782943330031955500,8.39595556640625,-0.0011304691433906555,0.0005198419094085693,-0.0013808594085276127
1782943330041940500,8.4059404296875,-0.0008095582015812397,-0.002597920596599579,-0.002821896690875292
1782943330051929600,8.4159296875,-0.0004428788088262081,0.0000283094123005867,0.0003239545039832592
1782943330061913600,8.42591357421875,-0.0008769738487899303,0.00012498162686824799,0.00008693290874361992
1782943330071898400,8.4358984375,0.0010698707774281502,0.000923539511859417,-0.0036643422208726406
1782943330081883400,8.44588330078125,0.0003982214257121086,-0.00002294778823852539,-0.0004395204596221447
1782943330091868400,8.455868408203125,-0.0005339998751878738,-0.0001545138657093048,0.0010833167470991611
1782943330101853400,8.465853515625,-0.0019587911665439606,0.002195725217461586,0.0008348440751433372
1782943330111838500,8.47583837890625,0.0012587662786245346,-0.0016315681859850883,0.003161524422466755
1782943330121823500,8.485823486328124,-0.00040277978405356407,0.00003077741712331772,0.0011649527586996555
1782943330131808500,8.49580859375,-0.0012041516602039337,0.002359669655561447,0.0014202059246599674
1782943330141793500,8.50579345703125,-0.0012398376129567623,-0.0010539703071117401,-0.0007476070895791054
1782943330151778600,8.515778564453125,0.0004036680329591036,-0.0011757742613554,0.0002717762254178524
1782943330161762600,8.525762451171875,-0.0002940800040960312,-0.0007342221215367317,-0.0010118675418198109
1782943330171747300,8.535747314453126,-0.00037264544516801834,0.0006760517135262489,0.0003482433967292309
1782943330181732400,8.545732421875,-0.0022312654182314873,-0.0007777679711580276,0.0014697005972266197
1782943330191717400,8.55571728515625,-0.0006689662113785744,0.00017233751714229584,-0.0005193878896534443
1782943330201702400,8.565702392578125,0.00003304285928606987,-0.0016460688784718513,-0.001101022120565176
1782943330211687700,8.575687744140625,0.0015099942684173584,0.0017559314146637917,0.00013383524492383003
1782943330221672400,8.58567236328125,0.0013664497528225183,0.0018512727692723274,-0.00015698233619332314
1782943330231657500,8.595657470703125,-0.00007364433258771896,0.0008755885064601898,0.0007346970960497856
1782943330241642500,8.605642578125,0.0011250446550548077,0.0008191298693418503,-0.0009385673329234123
1782943330251627500,8.61562744140625,-0.0016612065955996513,0.0011208951473236084,-0.0004788716323673725
1782943330261611500,8.625611572265624,-0.002557626459747553,0.0005384618416428566,-0.0003118915483355522
1782943330271596500,8.635596435546875,0.001320909708738327,-0.0008279597386717796,-0.0002739108167588711
1782943330281581300,8.645581298828125,-0.0007225340232253075,0.000133441761136055,0.00004433700814843178
1782943330291566300,8.65556640625,-0.0023345970548689365,-0.0021222392097115517,-0.0013384404592216015
1782943330301551600,8.665551513671875,0.00004973076283931732,0.0023787682875990868,-0.000177835114300251
1782943330311536600,8.67553662109375,0.001309749437496066,-0.0014480669051408768,0.0017369985580444336
1782943330321521400,8.685521484375,0.0025933932047337294,-0.0019016033038496971,0.00030182115733623505
1782943330331506400,8.69550634765625,-0.0007290560752153397,-0.0007672002539038658,-0.0009640059433877468
1782943330341491500,8.705491455078125,0.0025500941555947065,-0.000016721896827220917,0.00113776046782732
1782943330351476500,8.7154765625,-0.0010261619463562965,0.0022033434361219406,0.0011738701723515987
1782943330361460500,8.72546044921875,-0.002270923461765051,-0.0002632755786180496,-0.0006176386959850788
1782943330371445500,8.735445556640625,-0.0003605787642300129,0.0018398268148303032,-0.0009807036258280277
1782943330381430300,8.74543017578125,-0.0005480656400322914,-0.001153300516307354,-0.0015668650157749653
1782943330391415300,8.755415283203124,0.0009968045633286238,-0.0007332386448979378,-0.0010878676548600197
1782943330401400600,8.765400634765625,0.00013260869309306145,-0.00022563990205526352,-0.00006974115967750549
1782943330411385600,8.775385498046875,-0.00006035389378666878,0.0006295302882790565,-0.0003919024020433426
1782943330421370600,8.78537060546875,-0.00021242070943117142,-0.0005814088508486748,0.0030363844707608223
1782943330431355400,8.79535546875,-0.00027915462851524353,-0.00030368659645318985,0.000212955754250288
1782943330441340400,8.80534033203125,0.00007824180647730827,0.0005155019462108612,-0.0005130218341946602
1782943330451325400,8.815325439453124,0.0005249264650046825,-0.0016757436096668243,-0.0004247734323143959
1782943330461309400,8.825309326171874,0.001465821173042059,0.00020897574722766876,0.002547048032283783
1782943330471294500,8.83529443359375,-0.000493132509291172,0.0012532006949186325,0.0002925815060734749
1782943330481279500,8.845279541015625,-0.0001783468760550022,-0.0005897069349884987,0.0018100505694746971
1782943330491264500,8.855264404296875,0.001224554842337966,-0.0008771000429987907,0.0009728535078465939
1782943330501249500,8.86524951171875,0.0014064486604183912,0.0004121363162994385,0.00025912607088685036
1782943330511234600,8.875234619140626,0.0008212784305214882,-0.0009857779368758202,-0.00018430547788739204
1782943330521219600,8.885219482421874,0.00010408926755189896,0.0019903043285012245,-0.0004804488271474838
1782943330531204400,8.895204345703124,0.0001849881373345852,-0.001399235799908638,-0.0034875962883234024
1782943330541189400,8.905189453125,-0.001984955742955208,0.0015323720872402191,-0.002305951900780201
1782943330551174400,8.91517431640625,0.0013563057873398066,0.0008243611082434654,0.0012534675188362598
1782943330561158400,8.925158447265625,-0.0003667594864964485,-0.0008033625781536102,-0.0013782684691250324
1782943330571143700,8.935143798828125,-0.0001810952089726925,-0.00009503960609436035,-0.0003843940794467926
1782943330581128700,8.945128662109376,-0.00012543518096208572,-0.000417281873524189,-0.000546047929674387
1782943330591113500,8.955113525390624,-0.001521602738648653,0.001988416537642479,0.00216382322832942
1782943330601098500,8.965098388671874,0.0025652842596173286,0.0029902970418334007,0.0012863115407526493
1782943330611083500,8.97508349609375,-0.00143823167309165,0.0010863570496439934,-0.0014167902991175652
1782943330621068500,8.985068603515625,0.0015660803765058517,-0.00048011448234319687,-0.0014665909111499786
1782943330631053600,8.995053466796875,0.00020371517166495323,0.0012991605326533318,-0.002028623130172491
1782943330641038300,9.005038330078126,0.00013074465095996857,-0.0017805183306336403,0.0009959288872778416
1782943330651023600,9.015023681640624,-0.0022666584700345993,-0.00022781267762184143,-0.00013437354937195778
1782943330661007400,9.02500732421875,0.0013837364967912436,0.0009863227605819702,-0.0004603443667292595
1782943330670992600,9.03499267578125,0.0012713766191154718,-0.0006802249699831009,-0.0004584691487252712
1782943330680977700,9.044977783203125,-0.0024716961197555065,0.001786128617823124,-0.0011644731275737286
1782943330690962400,9.05496240234375,0.00008016219362616539,0.00041514355689287186,0.001164635643362999
1782943330700947500,9.064947509765625,0.00020106974989175797,-0.0009097792208194733,-0.0014971941709518433
1782943330710932500,9.074932373046876,0.0016971284057945013,-0.0022420380264520645,-0.0008087912574410439
1782943330720917500,9.08491748046875,0.00015888642519712448,0.0004541464149951935,-0.0019680652767419815
1782943330730902500,9.094902587890624,0.00019761687144637108,-0.0010240264236927032,-0.0011633224785327911
1782943330740887300,9.10488720703125,-0.000552062876522541,0.00074031762778759,-0.0006836866959929466
1782943330750872600,9.11487255859375,0.0011454790364950895,0.0006381180137395859,-0.0021431236527860165
1782943330760856600,9.124856689453125,0.000034940894693136215,-0.0005946587771177292,-0.0014389832504093647
1782943330770841600,9.134841552734375,-0.0008013551123440266,0.003907974809408188,-0.0005404539406299591
1782943330780826600,9.14482666015625,0.0011898905504494905,-0.0005810493603348732,0.0006470493972301483
1782943330790811600,9.154811767578124,-0.00039653945714235306,-0.0005618557333946228,0.00008042948320508003
1782943330800796400,9.16479638671875,0.0005315723828971386,-0.0019917069002985954,-0.00008149072527885437
1782943330810781400,9.174781494140625,0.00026272842660546303,-0.0008258521556854248,-0.00014478294178843498
1782943330820766500,9.184766357421875,0.0003290411550551653,0.0006431471556425095,-0.0002294713631272316
1782943330830751500,9.19475146484375,-0.002129458822309971,-0.00039262790232896805,0.001433399971574545
1782943330840736500,9.204736572265626,0.001065002754330635,0.0013120612129569054,-0.0025221933610737324
1782943330850721500,9.214721435546876,0.0020183701999485493,0.0001453608274459839,0.0023169200867414474
1782943330860705500,9.22470556640625,-0.0020530703477561474,-0.00045677926391363144,-0.0016376078128814697
1782943330870690600,9.234690673828124,-0.0005211401730775833,0.0001412937417626381,-0.0025717210955917835
1782943330880675600,9.244675537109375,0.002128705382347107,0.001452900469303131,-0.0004928577691316605
1782943330890660600,9.25466064453125,-0.0001405482180416584,-0.0010353457182645798,-0.00016094278544187546
1782943330900645400,9.264645263671875,-0.000013248994946479797,0.0007170150056481361,-0.0010357913561165333
1782943330910630400,9.27463037109375,0.0030627334490418434,0.0017950180917978287,0.00064484728500247
1782943330920615400,9.284615478515626,0.001954325707629323,-0.0017275456339120865,-0.0012483936734497547
1782943330930600400,9.294600341796874,-0.001787746325135231,-0.001172330230474472,-0.0001225396990776062
1782943330940585700,9.304585693359375,-0.002348075620830059,-0.002267422154545784,0.0007917233742773533
1782943330950570500,9.314570556640625,0.0011822530068457127,0.000767943449318409,-0.00041022710502147675
1782943330960554500,9.324554443359375,0.0007556146010756493,-0.001878972165286541,0.000430266372859478
1782943330970539500,9.33453955078125,-0.0017437008209526539,0.00010962225496768951,0.0005500852130353451
1782943330980524500,9.344524658203126,0.00040600262582302094,-0.00005123205482959747,0.001455560326576233
1782943330990509600,9.354509521484376,0.0011598982382565737,-0.0006556948646903038,0.00049928342923522
1782943331000494600,9.36449462890625,-0.0005762167274951935,0.0003837365657091141,-0.0008687819354236126
1782943331010479400,9.374479248046875,0.002092057606205344,-0.0005954373627901077,-0.0005743703804910183
1782943331020464400,9.38446435546875,-0.0002137073315680027,-0.000783989205956459,-0.0014920956455171108
1782943331030449700,9.39444970703125,-0.0005198144353926182,-0.0008428851142525673,-0.0003588832914829254
1782943331040434700,9.4044345703125,-0.002393614500761032,-0.00034274347126483917,0.002446223981678486
1782943331050419500,9.41441943359375,0.000029742252081632614,-0.0011974852532148361,-0.0008909236639738083
1782943331060404500,9.424404541015624,-0.0010778666473925114,-0.00176154263317585,-0.00043738773092627525
1782943331070388500,9.434388427734374,0.001835823291912675,-0.0019552139565348625,-0.0009214119054377079
1782943331080373500,9.44437353515625,-0.0017708954401314259,-0.0027219383046031,-0.0011187526397407055
1782943331090358500,9.454358642578125,0.0006378942634910345,-0.001239752396941185,-0.000650190282613039
1782943331100343600,9.464343505859375,0.001187304500490427,-0.00027196016162633896,0.002442804630845785
1782943331110328300,9.474328369140625,0.00029217591509222984,0.0009047938510775566,-0.000767961610108614
1782943331120313300,9.484313232421876,-0.00016695307567715645,0.0014555351808667183,0.0005319276824593544
1782943331130298600,9.494298583984374,0.0014113371726125479,0.001005604863166809,0.0003403336741030216
1782943331140283600,9.50428369140625,-0.0011780541390180588,-0.0012980299070477486,-0.000754491426050663
1782943331150268700,9.5142685546875,-0.0004066252149641514,-0.00013283081352710724,0.00004902202636003494
1782943331160253400,9.52425341796875,-0.001544860191643238,0.00016517657786607742,-0.00011769169941544533
1782943331170237400,9.534237548828125,0.0006859328132122755,0.0003460794687271118,-0.0000705895945429802
1782943331180222500,9.544222412109375,0.0010651671327650547,-0.0005948152393102646,0.0013938825577497482
1782943331190207500,9.55420751953125,-0.0000821487046778202,-0.0017834771424531937,0.0014370810240507126
1782943331200192500,9.564192626953124,-0.0011460818350315094,-0.0004265960305929184,0.0009856750257313251
1782943331210177500,9.574177490234375,0.0006813290528953075,-0.0013506626710295677,0.0017191218212246895
1782943331220162600,9.58416259765625,0.0003127476666122675,-0.0004973858594894409,0.0027835872024297714
1782943331230147600,9.594147705078125,0.00008633546531200409,0.0008583171293139458,-0.0021106554195284843
1782943331240132600,9.604132568359375,-0.0008529615588486195,-0.003297812305390835,0.0009881984442472458
1782943331250117600,9.61411767578125,0.0007976547349244356,0.0018679630011320114,0.0003704577684402466
1782943331260102400,9.624102294921874,0.003482121042907238,0.0014636954292654991,0.0016626236028969288
1782943331270086400,9.63408642578125,-0.00013439636677503586,-0.0005156276747584343,-0.0025990628637373447
1782943331280071400,9.644071533203125,0.000613153213635087,-0.0002692854031920433,0.0014670519158244133
1782943331290056400,9.654056396484375,-0.0006266799755394459,0.0009302711114287376,0.0008990396745502949
1782943331300041500,9.66404150390625,-0.002721256110817194,-0.0007541785016655922,-0.002061330247670412
1782943331310026500,9.674026611328125,-0.0010408833622932434,0.0006234515458345413,-0.0020188121125102043
1782943331320011500,9.684011474609376,-0.00040811626240611076,0.0018042968586087227,0.0026712813414633274
1782943331329996500,9.69399658203125,-0.00003320584073662758,-0.0001514628529548645,-0.00011631473898887634
1782943331339981600,9.703981689453125,0.000887715257704258,0.00004854053258895874,-0.0006867637857794762
1782943331349966600,9.713966552734375,0.00014780182391405106,0.00014440249651670456,-0.0009209280833601952
1782943331359951600,9.72395166015625,0.000706799328327179,-0.002123812213540077,0.00038535287603735924
1782943331369935600,9.733935546875,0.0018997332081198692,-0.0010662535205483437,-0.0007046908140182495
1782943331379920400,9.74392041015625,0.0014629748184233904,-0.001125907525420189,-0.00013504130765795708
1782943331389905400,9.753905517578126,0.0011076994705945253,0.0005973167717456818,0.0009395424276590347
1782943331399890400,9.763890380859374,-0.00017088418826460838,-0.0010511800646781921,0.0004441943019628525
1782943331409875700,9.773875732421875,-0.0005448395386338234,-0.001058691181242466,0.001287299208343029
1782943331419860500,9.783860595703125,0.00067941565066576,0.0022601401433348656,0.0001884792000055313
1782943331429845500,9.793845458984375,0.001425791997462511,-0.00037095602601766586,0.0003638328053057194
1782943331439830500,9.80383056640625,0.00033309683203697205,-0.00047535263001918793,-0.0016673598438501358
1782943331449815600,9.813815673828126,-0.00018639443442225456,-0.0009439131245017052,0.0009072157554328442
1782943331459800600,9.823800537109374,0.00008897669613361359,-0.0009013023227453232,-0.00009786151349544525
1782943331469784600,9.83378466796875,-0.000025869347155094147,-0.00017833244055509567,0.0006828270852565765
1782943331479769300,9.843769287109374,-0.001432817429304123,0.00024564284831285477,-0.0012152078561484814
1782943331489754000,9.853754150390625,-0.0029731900431215763,0.0007908418774604797,0.0003513558767735958
1782943331499739100,9.8637392578125,-0.0016799592413008213,-0.0016302373260259628,-0.00048194732517004013
1782943331509724400,9.873724365234375,0.0006381680723279715,0.001505511812865734,-0.002187383361160755
1782943331519709400,9.88370947265625,-0.0013775788247585297,-0.0008649677038192749,0.0003498098812997341
1782943331529694200,9.893694091796876,-0.0015431432984769344,-0.001683439128100872,-0.0004034861922264099
1782943331539679200,9.90367919921875,0.00123533234000206,-0.0007233694195747375,0.0003645694814622402
1782943331549664300,9.913664306640625,-0.0015922929160296917,-0.000644671730697155,-0.001079122070223093
1782943331559649300,9.923649169921875,-0.0007922793738543987,-0.0007203062996268272,0.0008929483592510223
1782943331569633300,9.93363330078125,0.0008308852557092905,0.0005641523748636246,-0.0021217847242951393
1782943331579618300,9.943618408203125,0.0004524500109255314,-0.0007482534274458885,-0.001047465018928051
1782943331589603000,9.95360302734375,-0.0005279057659208775,-0.002032363787293434,0.0014980612322688103
1782943331599588000,9.963588134765626,-0.000888497568666935,0.0000667395070195198,-0.000577074009925127
1782943331609573400,9.973573486328124,-0.0000155717134475708,-0.0008524702861905098,-0.00006434926763176918
1782943331619558400,9.983558349609375,0.0003090673126280308,-0.0005512675270438194,-0.0013586459681391716
1782943331629543400,9.99354345703125,-0.0010701650753617287,0.0014726566150784492,-0.001046817284077406
1782943331639528200,10.003528076171875,-0.001265907660126686,-0.0012296522036194801,-0.0015416317619383335
1782943331649513200,10.01351318359375,-0.0023109549656510353,-0.0024688923731446266,-0.0009549148380756378
1782943331659498200,10.023498291015626,0.0008994857780635357,0.00044194329530000687,-0.0024470845237374306
1782943331669483300,10.033483154296874,0.0005787436384707689,-0.0008137961849570274,-0.00023055775091052055
1782943331679467300,10.04346728515625,-0.0004750690422952175,-0.003367767669260502,-0.002261484507471323
1782943331689452300,10.053452392578125,0.0017922192346304655,0.0014673443511128426,-0.000807320699095726
1782943331699437300,10.063437255859375,0.0013722386211156845,0.0016375202685594559,0.00029709236696362495
1782943331709422300,10.07342236328125,0.0025466131046414375,-0.0005615735426545143,0.00003426847979426384
1782943331719407400,10.083407470703126,0.0014320802874863148,-0.0010585198178887367,0.0008742292411625385
1782943331729392400,10.093392333984376,0.002483115531504154,0.0016748206689953804,-0.0008579790592193604
1782943331739377200,10.103377197265624,0.0002777520567178726,0.0006598904728889465,-0.000170084647834301
1782943331749362200,10.113362060546875,-0.00001037493348121643,-0.0011719614267349243,0.0002678041346371174
1782943331759347200,10.12334716796875,0.0020788749679923058,0.0002498999238014221,0.00020601879805326462
1782943331769332200,10.133332275390625,0.0005353817250579596,-0.0019847946241497993,-0.003144882619380951
1782943331779316200,10.143316162109375,-0.0015248395502567291,-0.0012441696599125862,0.0006131045520305634
1782943331789301200,10.15330126953125,0.0002703918144106865,0.0004922794178128242,-0.0013785548508167267
1782943331799286300,10.163286376953126,0.001306627644225955,-0.0005343696102499962,-0.0018270304426550865
1782943331809271300,10.173271240234374,-0.0014061802066862583,-0.001057228073477745,0.0016173990443348885
1782943331819256300,10.18325634765625,-0.0005662194453179836,-0.0015571033582091331,-0.000684371218085289
1782943331829241300,10.193241455078125,0.0012847911566495895,-0.002273116260766983,-0.0019306116737425327
1782943331839226400,10.203226318359375,-0.002269197255373001,0.0003295913338661194,-0.0009846570901572704
1782943331849211100,10.213211181640625,-0.0006697871722280979,0.0008969269692897797,-0.0010297042317688465
1782943331859196200,10.223196044921876,-0.0024471809156239033,0.0009166346862912178,0.0011189342476427555
1782943331869181200,10.23318115234375,0.0007951962761580944,0.00001034606248140335,-0.0007654791697859764
1782943331879165200,10.243165283203124,-0.0026943436823785305,-0.0016807615756988525,0.00033573852851986885
1782943331889150500,10.253150390625,0.0001670587807893753,0.00046069733798503876,0.0005523161962628365
1782943331899135200,10.26313525390625,-0.000024422537535429,-0.0005387868732213974,-0.00038032280281186104
1782943331909120300,10.273120361328125,0.0007565096020698547,-0.000015217810869216919,0.0004109586589038372
1782943331919105300,10.283105224609375,-0.00001474190503358841,0.0008231457322835922,-0.0022820299491286278
1782943331929090300,10.29309033203125,0.0006684188265353441,-0.002052202820777893,0.0011654612608253956
1782943331939075300,10.303075439453124,0.0012473899405449629,0.0024581262841820717,0.00035479525104165077
1782943331949060000,10.31306005859375,0.0009495329577475786,0.001930893398821354,-0.0009483904577791691
1782943331959045000,10.323045166015625,0.0018874984234571457,-0.0015514558181166649,-0.0008674305863678455
1782943331969030400,10.333030517578125,-0.0005890531465411186,-0.0015908461064100266,0.00034052925184369087
1782943331979015400,10.343015380859375,-0.0012061074376106262,0.0006765695288777351,0.0022199219092726707
1782943331988999400,10.35299951171875,-0.002691094297915697,0.0007964503020048141,-0.001226481981575489
1782943331998984400,10.362984375,-0.0015256949700415134,0.00039218273013830185,0.0018143155612051487
1782943332008969200,10.37296923828125,-0.0014529689215123653,0.00014933105558156967,-0.001088482327759266
1782943332018954200,10.382954345703125,0.0003505237400531769,-0.0018557626754045486,-0.0005100443959236145
1782943332028939300,10.392939208984375,-0.0015641762875020504,0.0033527957275509834,0.000492666382342577
1782943332038924300,10.40292431640625,-0.0008778795599937439,-0.00016843527555465698,0.0012418138794600964
1782943332048909300,10.412909423828125,-0.0011733686551451683,-0.00037727411836385727,-0.000417840201407671
1782943332058894000,10.42289404296875,0.0009896508418023586,-0.0016004638746380806,0.0007696631364524364
1782943332068879400,10.43287939453125,0.0009992457926273346,-0.0008816365152597427,0.0012371288612484932
1782943332078864400,10.442864501953125,0.0009893921669572592,0.0007194560021162033,0.0014184904284775257
1782943332088848400,10.452848388671875,-0.0005096970126032829,-0.0009271539747714996,0.00023167626932263374
1782943332098833400,10.46283349609375,-0.0005312683060765266,0.0005295947194099426,-0.0015174876898527145
1782943332108818200,10.472818115234375,0.00034436979331076145,-0.00010244175791740417,-0.00035146158188581467
1782943332118803200,10.48280322265625,0.0007108207792043686,-0.0007008537650108337,-0.0011437516659498215
1782943332128788200,10.492788330078126,0.0000014710240066051483,0.0015079202130436897,0.00002849102020263672
1782943332138773200,10.502773193359374,0.00249685300514102,-0.0011456534266471863,0.0009025405161082745
1782943332148758300,10.51275830078125,-0.0004917262122035027,-0.002055254764854908,-0.002168981358408928
1782943332158743300,10.522743408203125,0.0014963233843445778,-0.000026990659534931183,0.00046089058741927147
1782943332168728300,10.532728271484375,0.000017741695046424866,0.0007877126336097717,-0.0005974117666482925
1782943332178713300,10.54271337890625,0.001427086303010583,-0.0017398940399289131,0.000959472730755806
1782943332188697300,10.552697265625,0.0025787698104977608,0.000508362427353859,-0.002330983057618141
1782943332198682400,10.562682373046876,0.001053577521815896,-0.001874634064733982,0.0010107518173754215
1782943332208667400,10.57266748046875,-0.0014328351244330406,0.00008137617260217667,0.0006428719498217106
1782943332218652200,10.582652099609374,0.0011618828866630793,0.0005988292396068573,-0.0011499682441353798
1782943332228637200,10.59263720703125,-0.00007735053077340126,0.0008804565295577049,0.0024380292743444443
1782943332238622200,10.602622314453125,-0.0004728301428258419,0.0005297185853123665,-0.00037666549906134605
1782943332248607200,10.612607177734375,-0.001255088485777378,0.0008088042959570885,0.0004213070496916771
1782943332258592300,10.62259228515625,-0.001308351755142212,-0.0012759184464812279,-0.0011483603157103062
1782943332268577300,10.632577392578124,-0.00010712118819355965,-0.0008008116856217384,0.0013093454763293266
1782943332278562300,10.642562255859374,-0.0021620159968733788,-0.0019526295363903046,-0.00350005691871047
1782943332288546300,10.65254638671875,0.002678648801520467,-0.0009532766416668892,-0.0015191440470516682
1782943332298531300,10.66253125,-0.0011283401399850845,0.00017270725220441818,0.0015054084360599518
1782943332308516400,10.672516357421875,-0.0005711703561246395,0.0012838561087846756,-0.0013175434432923794
1782943332318501000,10.682501220703125,0.0007550839800387621,-0.00040565337985754013,0.00008301250636577606
1782943332328486100,10.692486083984376,0.0024035184178501368,0.00202275812625885,-0.0022594877518713474
1782943332338471200,10.70247119140625,0.0014634225517511368,-0.0008169710636138916,-0.00203524949029088
1782943332348456400,10.71245654296875,0.00006140721961855888,-0.002233198843896389,0.00024051545187830925
1782943332358441500,10.72244140625,-0.00007840897887945175,0.0011199871078133583,0.0010575735941529274
1782943332368426200,10.73242626953125,0.0014303536154329777,-0.004475611262023449,0.0018132925033569336
1782943332378411300,10.742411376953125,0.0010694952215999365,-0.0029373690485954285,0.00014668656513094902
1782943332388395300,10.752395263671875,0.007405204698443413,-0.009314222261309624,-0.004422405734658241
1782943332398380300,10.76238037109375,0.0121991615742445,0.007208029739558697,0.005012908019125462
1782943332408365300,10.772365234375,0.008705885149538517,-0.0013596834614872932,0.0028427420184016228
1782943332418350300,10.782350341796874,0.02914990857243538,-0.0025053750723600388,-0.0034511066041886806
1782943332428335000,10.792335205078125,0.04414297267794609,0.0014169281348586082,0.0025742952711880207
1782943332438320000,10.802320068359375,0.0257160272449255,0.017269928008317947,0.0071762376464903355
1782943332448305400,10.812305419921875,0.01628260873258114,-0.005617051385343075,-0.0022534895688295364
1782943332458290400,10.82229052734375,0.010260136798024178,0.010614115744829178,0.002700523007661104
1782943332468275200,10.832275146484376,0.010221051052212715,0.004537505097687244,0.002293047495186329
1782943332478260200,10.84226025390625,0.011679930612444878,0.002355576492846012,0.0010240515694022179
1782943332488244000,10.852243896484374,0.01060904935002327,0.003979667089879513,0.0015997644513845444
1782943332498229000,10.86222900390625,0.005865693558007479,-0.0028167199343442917,0.0007084044627845287
1782943332508214000,10.872214111328125,0.0014876609202474356,-0.0005950331687927246,0.003222706727683544
1782943332518199000,10.882198974609375,0.002947073196992278,-0.0005588140338659286,0.0004069465212523937
1782943332528184000,10.89218408203125,0.0017795742023736238,0.0018260078504681587,0.0006362386047840118
1782943332538168800,10.9021689453125,0.0025633424520492554,-0.0009311633184552193,-0.00009240210056304932
1782943332548153900,10.91215380859375,-0.00015574507415294647,0.0018401220440864563,-0.001204005442559719
1782943332558139100,10.92213916015625,0.003210756927728653,-0.0003692358732223511,-0.0000932011753320694
1782943332568124200,10.932124267578125,-0.000546453520655632,-0.0003662100061774254,0.0009738653898239136
1782943332578109000,10.94210888671875,-0.0014338186010718346,0.0013121142983436584,0.0004742564633488655
1782943332588093000,10.952093017578125,0.0008319753687828779,-0.0026162192225456238,-0.0022811125963926315
1782943332598078000,10.962077880859376,-0.0005328948609530926,-0.0003061937168240547,-0.00038733845576643944
1782943332608063000,10.97206298828125,0.00027783308178186417,0.0012849671766161919,-0.002004421316087246
1782943332618048000,10.982048095703124,0.0019202043768018484,-0.0008072126656770706,-0.0026273345574736595
1782943332628033000,10.992032958984375,0.0010530485305935144,-0.00033765845000743866,0.00006139837205410004
1782943332638017800,11.002017822265625,-0.008419016376137733,0.24577569961547852,0.12370264530181885
1782943332648002800,11.0120029296875,-0.01973666623234749,0.3106642961502075,0.09452412277460098
1782943332657988000,11.021988037109375,0.0069886865094304085,-0.19925087690353394,-0.07230720669031143
1782943332667973000,11.03197314453125,0.006205968093127012,-0.06600211560726166,-0.02586846426129341
1782943332677958000,11.0419580078125,0.008485633879899979,-0.11348893493413925,-0.05232270807027817
1782943332687943000,11.05194287109375,0.0023777750320732594,-0.07931584864854813,-0.025013674050569534
1782943332697927000,11.061927001953125,0.0009178302716463804,0.049590736627578735,0.010173074901103973
