time,seconds_elapsed,z,y,x
1782943355149328400,0.080328369140625,-0.00019400520250201225,0.0006982497870922089,0.001706272829324007
1782943355159313400,0.0903134765625,-0.0008670571260154247,-0.000465981662273407,0.001868212129920721
1782943355169298400,0.10029833984375,0.0010576096829026937,0.001056014560163021,0.00045087793841958046
1782943355179283700,0.11028369140625,-0.002388780005276203,-0.0010395338758826256,-0.0019287182949483395
1782943355189268500,0.1202685546875,-0.0008031339384615421,0.0017344150692224503,0.002221818082034588
1782943355199253500,0.13025341796875,0.00024904427118599415,0.003797488287091255,0.00038014911115169525
1782943355209238500,0.140238525390625,-0.00035229744389653206,-0.000501120463013649,-0.0013839290477335453
1782943355219223600,0.1502236328125,0.00009340280666947365,-0.00008033215999603271,-0.0009401659481227398
1782943355229207600,0.16020751953125,0.00044174445793032646,0.002600405365228653,-0.000838432926684618
1782943355239192600,0.170192626953125,0.002488492988049984,-0.0003340030089020729,-0.0009290357120335102
1782943355249177300,0.18017724609375,-0.0003195442259311676,0.0009059645235538483,-0.00004726322367787361
1782943355259162400,0.190162353515625,-0.0012184465304017067,0.0006500463932752609,-0.0016208146698772907
1782943355269147400,0.2001474609375,0.00007238797843456268,-0.0004783347249031067,0.0006047892384231091
1782943355279132700,0.210132568359375,-0.0009352671913802624,-0.0007424624636769295,-0.0003066123463213444
1782943355289117700,0.22011767578125,-0.0007187523879110813,0.0011939220130443573,-0.0020632329396903515
1782943355299102500,0.2301025390625,-0.0017479360103607178,0.00007169879972934723,-0.002751121297478676
1782943355309087500,0.24008740234375,-0.0005266102962195873,-0.00019115488976240158,-0.00121394544839859
1782943355319071500,0.250071533203125,0.0005949751939624548,-0.0017717983573675156,0.0016554128378629684
1782943355329056500,0.260056396484375,0.0011302705388516188,0.0007606009021401405,0.0006916145794093609
1782943355339041500,0.27004150390625,-0.0011898158118128777,0.0017247702926397324,0.000005285721272230148
1782943355349026600,0.280026611328125,0.00010980665683746338,-0.0011836681514978409,0.0006385855376720428
1782943355359011300,0.29001123046875,0.0004456168971955776,0.00002029258757829666,0.002198282163590193
1782943355368996600,0.29999658203125,-0.0002092546783387661,-0.0017794715240597725,-0.00003717513754963875
1782943355378981600,0.309981689453125,-0.001638652291148901,0.002184111624956131,-0.000018532853573560715
1782943355388966700,0.319966552734375,-0.0007590102031826973,-0.0014974428340792656,0.0006003854796290398
1782943355398950700,0.32995068359375,-0.0004682755097746849,0.00014093425124883652,-0.0008771358989179134
1782943355408935400,0.339935302734375,-0.0005340557545423508,0.0016224505379796028,-0.0006201411597430706
1782943355418920400,0.34992041015625,-0.0013782847672700882,0.00004178006201982498,-0.0024240235798060894
1782943355428905500,0.359905517578125,0.00018685497343540192,0.0016338182613253593,0.002504155971109867
1782943355438890500,0.369890380859375,0.0005227911751717329,-0.000642361119389534,-0.00006427150219678879
1782943355448875500,0.37987548828125,0.000026644207537174225,-0.0007667308673262596,0.0007471935823559761
1782943355458860300,0.3898603515625,-0.00009638024494051933,0.0004169866442680359,-0.0016266796737909317
1782943355468845600,0.399845458984375,-0.00019811326637864113,-0.00044561177492141724,-0.002294067293405533
1782943355478829600,0.40982958984375,-0.000027003232389688492,-0.0002644304186105728,-0.001336804125458002
1782943355488814600,0.419814697265625,-0.000448848120868206,-0.0005954615771770477,-0.0013269507326185703
1782943355498799600,0.429799560546875,0.00008516060188412666,0.0015748059377074242,0.00017979787662625313
1782943355508784600,0.43978466796875,0.0003453511744737625,0.0014946451410651207,-0.001451921183615923
1782943355518765600,0.449765625,0.00035022106021642685,-0.0018858155235648155,-0.0021193581633269787
1782943355528750600,0.45975048828125,0.0007065520621836185,0.003038635477423668,0.0002958625555038452
1782943355538735600,0.469735595703125,-0.0016852240078151226,0.0013956660404801369,0.0011640405282378197
1782943355548720600,0.479720703125,0.00040935189463198185,-0.0029386281967163086,0.0019169165752828121
1782943355558705700,0.48970556640625,-0.0004111705347895622,0.00002399459481239319,0.0021493546664714813
1782943355568689700,0.499689697265625,-0.0028684688732028008,-0.0001051686704158783,0.0013477434404194355
1782943355578674400,0.50967431640625,-0.001086344476789236,-0.0021166279911994934,0.0004094368778169155
1782943355588659500,0.519659423828125,-0.0018725097179412842,-0.0018796063959598541,0.00159507617354393
1782943355598644700,0.529644775390625,0.0009341109544038773,-0.002963421866297722,0.00008074101060628891
1782943355608629800,0.539629638671875,0.00007390975952148438,-0.001019313931465149,0.0008993968367576599
1782943355618614800,0.54961474609375,-0.00035510631278157234,-0.0012778285890817642,0.000039954204112291336
1782943355628599600,0.559599609375,-0.0012025241740047932,-0.0006541162729263306,0.0003153253346681595
1782943355638584600,0.56958447265625,0.002425998682156205,-0.002758690156042576,0.00007220590487122536
1782943355648568600,0.579568603515625,-0.0020108274184167385,-0.000471566803753376,-0.0012860060669481754
1782943355658553600,0.5895537109375,0.000033694785088300705,0.00048028677701950073,-0.001122110988944769
1782943355668538600,0.59953857421875,-0.0025740722194314003,-0.00015248078852891922,-0.00014126906171441078
1782943355678523600,0.609523681640625,0.0005808928981423378,-0.002887866459786892,0.001455183606594801
1782943355688508700,0.6195087890625,0.0011896917130798101,0.00043629109859466553,-0.0005949181504547596
1782943355698493700,0.62949365234375,-0.0002709208056330681,-0.00030825380235910416,-0.001153591088950634
1782943355708478700,0.639478759765625,-0.001375067513436079,0.0006653973832726479,0.0001681358553469181
1782943355718463700,0.649463623046875,-0.00018949946388602257,-0.0007234672084450722,0.00002304278314113617
1782943355728447700,0.65944775390625,0.001258993986994028,0.0026318496093153954,-0.0009663212113082409
1782943355738432800,0.669432861328125,0.0012842081487178802,-0.0016407528892159462,0.0006712884642183781
1782943355748417500,0.67941748046875,0.0015579811297357082,-0.0008186353370547295,0.0016209715977311134
1782943355758402600,0.689402587890625,0.0013308424968272448,0.0023713493719697,0.0012236982583999634
1782943355768387600,0.6993876953125,0.0005654499400407076,-0.0023640161380171776,0.0017390199936926365
1782943355778372600,0.70937255859375,-0.0002966197207570076,0.0003377394750714302,0.0028315545059740543
1782943355788357600,0.719357666015625,0.0011500092223286629,-0.002772299572825432,0.0017258101142942905
1782943355798342700,0.7293427734375,0.0005463303532451391,-0.001879323273897171,0.0017489641904830933
1782943355808327700,0.73932763671875,-0.001669685821980238,0.0009817108511924744,-0.001938981469720602
1782943355818311700,0.749311767578125,0.0013533607125282288,0.0006049815565347672,-0.0017972118221223354
1782943355828296700,0.759296630859375,0.0004958228673785925,-0.0005929078906774521,0.0009511709213256836
1782943355838281700,0.76928173828125,0.00023119826801121235,0.002539306879043579,-0.0016591115854680538
1782943355848266500,0.7792666015625,-0.0036578159779310226,0.0004492569714784622,0.0016037938185036182
1782943355858251500,0.78925146484375,0.0005511841736733913,0.002732904627919197,0.00019737659022212029
1782943355868236500,0.799236572265625,0.000541863264515996,0.0015161065384745598,-0.0012604380026459694
1782943355878221800,0.809221923828125,-0.00028989510610699654,0.0017593931406736374,0.0006154193542897701
1782943355888206800,0.819206787109375,-0.001295238733291626,-0.0013431897386908531,-0.0002770056016743183
1782943355898190800,0.82919091796875,0.0014167805202305317,-0.0011412100866436958,-0.0010481174103915691
1782943355908175600,0.839175537109375,0.0004500530194491148,0.00038584694266319275,-0.0002006995491683483
1782943355918160600,0.84916064453125,0.0006055221892893314,0.0006223227828741074,0.0007732883095741272
1782943355928145700,0.859145751953125,-0.00012977654114365578,-0.0026669474318623543,-0.0003612181171774864
1782943355938130700,0.869130615234375,-0.0007452620193362236,-0.002513282932341099,-0.001891077496111393
1782943355948115700,0.87911572265625,0.0004353171680122614,0.0013216696679592133,-0.0023259716108441353
1782943355958100500,0.8891005859375,0.000037631019949913025,-0.0015283189713954926,0.00045113638043403625
1782943355968085500,0.89908544921875,0.0019250132609158754,-0.0013304464519023895,0.0033262851648032665
1782943355978069500,0.909069580078125,0.0009236186742782593,-0.0016955332830548286,0.0005357540212571621
1782943355988054800,0.9190546875,-0.002988032530993223,-0.001662510447204113,0.0022521615028381348
1782943355998039800,0.929039794921875,-0.0006015906110405922,-0.00014881230890750885,0.0007575806230306625
1782943356008024600,0.939024658203125,-0.0008292910642921925,0.0037852097302675247,0.0013932771980762482
1782943356018009600,0.949009521484375,-0.000644974410533905,-0.0013289526104927063,0.0025520906783640385
1782943356027994600,0.95899462890625,0.0008274870924651623,-0.0011124378070235252,-0.0011536981910467148
1782943356037979600,0.968979736328125,0.0006013887468725443,-0.0005039116367697716,-0.0016628867015242577
1782943356047964700,0.978964599609375,-0.0010015680454671383,-0.0019380245357751846,0.002157418057322502
1782943356057948700,0.98894873046875,0.0006126947700977325,0.0007646447047591209,-0.0006822505965828896
1782943356067933400,0.998933349609375,0.002353603020310402,0.00007861480116844177,0.0000921967439353466
1782943356077918500,1.00891845703125,-0.0006585675291717052,0.0009904708713293076,-0.0012522297911345959
1782943356087903700,1.01890380859375,0.0020061915274709463,0.000016286037862300873,0.0023976326920092106
1782943356097888800,1.028888671875,-0.0016329349018633366,-0.00030973833054304123,0.0027504521422088146
1782943356107873800,1.038873779296875,0.0016560691874474287,-0.0006564818322658539,-0.000557460356503725
1782943356117858600,1.048858642578125,0.0000434177927672863,-0.0007643355056643486,-0.0015652296133339405
1782943356127843600,1.058843505859375,0.0003502138424664736,0.0018173325806856155,0.0009882091544568539
1782943356137828600,1.06882861328125,-0.00005732709541916847,-0.0007996503263711929,0.001320790033787489
1782943356147812600,1.0788125,-0.0017332546412944794,-0.0011866074055433273,0.0008837655186653137
1782943356157797600,1.088797607421875,-0.0003552106209099293,-0.0012210449203848839,-0.002884005196392536
1782943356167782700,1.09878271484375,0.0013635933864861727,-0.0013368930667638779,-0.0010506855323910713
1782943356177767700,1.108767578125,0.00026083551347255707,-0.0024030106142163277,0.002789822407066822
1782943356187752700,1.118752685546875,0.0005034494679421186,0.002849276177585125,0.0019389423541724682
1782943356197737700,1.12873779296875,-0.00026520155370235443,0.0027348827570676804,-0.002853706944733858
1782943356207722800,1.13872265625,-0.000919007696211338,-0.000433214008808136,-0.000567916315048933
1782943356217707500,1.14870751953125,0.0012589921243488789,-0.0001507410779595375,-0.0031806710176169872
1782943356227691800,1.15869189453125,0.0003892036620527506,0.0006319619715213776,-0.0002274918369948864
1782943356237676500,1.168676513671875,0.0007306274492293596,0.0024752337485551834,-0.0010739704594016075
1782943356247661600,1.17866162109375,-0.0006227907724678516,0.00043711625039577484,-0.0012601250782608986
1782943356257646600,1.188646484375,-0.0015500937588512897,-0.0009357472881674767,0.0016864505596458912
1782943356267631600,1.198631591796875,-0.000679240096360445,-0.0020015444606542587,0.0001133214682340622
1782943356277616600,1.20861669921875,0.0006357121746987104,-0.0009380606934428215,-0.000646564643830061
1782943356287601700,1.2186015625,-0.0005904072895646095,0.0003407895565032959,0.001197674311697483
1782943356297586700,1.228586669921875,-0.0003562825731933117,-0.0012835972011089325,-0.0001302659511566162
1782943356307570700,1.23857080078125,0.0035300685558468103,-0.0023382091894745827,-0.001531887799501419
1782943356317555700,1.2485556640625,-0.00011848891153931618,-0.0011430177837610245,-0.001302595715969801
1782943356327540700,1.258540771484375,-0.0005331430584192276,0.0016567632555961609,-0.0004650312475860119
1782943356337525500,1.268525390625,-0.003665622789412737,0.000018650665879249573,0.0003106379881501198
1782943356347510500,1.278510498046875,0.0015991802792996168,0.0008112071081995964,-0.002341870218515396
1782943356357495600,1.28849560546875,-0.00017401669174432755,-0.0007595177739858627,0.0006778347305953503
1782943356367480600,1.29848046875,-0.0015375553630292416,0.00012625008821487427,0.000209917314350605
1782943356377465600,1.308465576171875,0.000499251764267683,0.0017548911273479462,0.0005716024897992611
1782943356387449900,1.318449951171875,-0.0015178266912698746,0.00039854366332292557,-0.0011160424910485744
1782943356397434600,1.3284345703125,-0.0007067723199725151,-0.0012231431901454926,-0.00025367317721247673
1782943356407419600,1.338419677734375,-0.00028066663071513176,-0.00008357595652341843,0.00015618745237588882
1782943356417404700,1.34840478515625,-0.0013437187299132347,0.002228262834250927,-0.0001986473798751831
1782943356427389700,1.3583896484375,-0.0006491662934422493,0.00032596662640571594,-0.001076958142220974
1782943356437374500,1.36837451171875,-0.0005736341699957848,-0.0025952178984880447,0.0037225184496492147
1782943356447359500,1.378359375,0.0011789922136813402,0.00037393998354673386,0.0007538930512964725
1782943356457344500,1.388344482421875,0.0009310522582381964,-0.00004027877002954483,0.0007448573596775532
1782943356467328500,1.39832861328125,-0.0015693893656134605,-0.0016581490635871887,-0.0005766032263636589
1782943356477313500,1.4083134765625,-0.00238899327814579,0.0014108987525105476,-0.0010299338027834892
1782943356487298800,1.418298828125,-0.0019367886707186699,-0.0019191177561879158,0.000006302259862422943
1782943356497283600,1.42828369140625,-0.001347128301858902,-0.0010417625308036804,0.0009087310172617435
1782943356507268600,1.4382685546875,0.0017855479381978512,0.0005489438772201538,-0.0011520227417349815
1782943356517253600,1.448253662109375,0.0011564355809241533,-0.0026759542524814606,0.00344295147806406
1782943356527238700,1.45823876953125,0.0006368528120219707,0.0038397349417209625,-0.002858087420463562
1782943356537223700,1.4682236328125,0.0018247421830892563,0.002785393036901951,-0.000054477714002132416
1782943356547208400,1.47820849609375,-0.0004061879590153694,-0.00012783892452716827,0.0008773626759648323
1782943356557192400,1.4881923828125,-0.00017812242731451988,0.0008196085691452026,0.0014053559862077236
1782943356567177500,1.498177490234375,-0.00023671193048357964,0.0011972449719905853,0.0000793682411313057
1782943356577162800,1.508162841796875,-0.0002386779524385929,0.00013461802154779434,0.0009337360970675945
1782943356587147800,1.518147705078125,0.0010795868001878262,0.003556246869266033,-0.0019989372231066227
1782943356597132800,1.5281328125,0.00009015435352921486,-0.0006895838305354118,-0.002032807096838951
1782943356607117600,1.53811767578125,0.0009484910406172276,-0.00012073293328285217,-0.0011382512748241425
1782943356617102600,1.5481025390625,-0.000024219509214162827,-0.0009533427655696869,-0.0013512899167835712
1782943356627087600,1.558087646484375,0.00009242724627256393,-0.0007027396932244301,0.0003526001237332821
1782943356637071600,1.568071533203125,-0.002042404841631651,0.0022922856733202934,-0.0002561807632446289
1782943356647056600,1.578056640625,0.00010170601308345795,-0.0015932656824588776,-0.00039413291960954666
1782943356657041700,1.588041748046875,0.0001405715011060238,0.00034999195486307144,0.00012978306040167809
1782943356667026400,1.5980263671875,-0.0002330699935555458,-0.001288384199142456,0.00027918675914406776
1782943356677011700,1.60801171875,-0.0008667958900332451,-0.0007536290213465691,0.0013740845024585724
1782943356686996700,1.617996826171875,0.0003910150844603777,0.0014290977269411087,-0.00007653934881091118
1782943356696981800,1.627981689453125,0.0009379766415804625,0.000235043466091156,-0.0008865022100508213
1782943356706966500,1.637966552734375,0.000510272802785039,0.003406069241464138,-0.000008191913366317749
1782943356716950500,1.647950439453125,0.0012458728160709143,0.0017016846686601639,-0.0014883317053318024
1782943356726935600,1.657935546875,0.0023569436743855476,0.0009426837787032127,0.002060063648968935
1782943356736920600,1.667920654296875,0.0012158688623458147,-0.000006453134119510651,0.0015461896546185017
1782943356746905600,1.677905517578125,-0.000364184845238924,-0.00030366145074367523,-0.0013987338170409203
1782943356756890600,1.687890625,-0.002623204607516527,0.0003656400367617607,0.0012861094437539577
1782943356766875600,1.697875732421875,0.001866884995251894,-0.0006674006581306458,-0.0018763947300612926
1782943356776860700,1.707860595703125,0.000594619195908308,-0.001407373696565628,-0.0007518734782934189
1782943356786845700,1.717845703125,-0.001783051062375307,-0.002002057619392872,0.001099555753171444
1782943356796829700,1.72782958984375,-0.0012517995201051235,0.000049763359129428864,-0.0013944236561655998
1782943356806814700,1.737814697265625,0.0011498392559587955,0.0012697568163275719,-0.0045800963416695595
1782943356816799700,1.7477998046875,0.00034095090813934803,-0.00003123283386230469,0.0020938245579600334
1782943356826784500,1.757784423828125,-0.001084372866898775,-0.0018309969455003738,-0.00045242346823215485
1782943356836769500,1.76776953125,0.00233759474940598,0.001422591507434845,0.002733099739998579
1782943356846754600,1.777754638671875,-0.00040546106174588203,-0.0010429630056023598,-0.0008461885154247284
1782943356856739600,1.787739501953125,0.001810107147321105,0.0006438121199607849,0.0008359667845070362
1782943356866724600,1.797724609375,-0.00015637092292308807,-0.002068883739411831,0.00011211959645152092
1782943356876708900,1.807708984375,-0.00020834803581237793,-0.001965749077498913,0.0003335624933242798
1782943356886693600,1.817693603515625,-0.0024595181457698345,-0.0008584074676036835,0.0011274507269263268
1782943356896678700,1.8276787109375,0.0021168149542063475,-0.001738784834742546,-0.00030856160447001457
1782943356906663700,1.83766357421875,-0.0013934974558651447,0.0006479397416114807,0.0012368708848953247
1782943356916648700,1.847648681640625,-0.0009589940309524536,-0.0016273539513349533,-0.001257819589227438
1782943356926633500,1.857633544921875,0.0017281356267631054,0.001472831703722477,0.0014876332134008408
1782943356936618500,1.867618408203125,-0.0015421481803059578,-0.0003054691478610039,-0.0021755429916083813
1782943356946603500,1.877603515625,0.0007676116656512022,0.0017704647034406662,0.000009580515325069427
1782943356956587500,1.88758740234375,-0.0007338984869420528,-0.0008701253682374954,0.0014663273468613625
1782943356966572500,1.897572509765625,-0.0014324458315968513,-0.004365789704024792,0.002717746887356043
1782943356976557800,1.907557861328125,0.000468874117359519,0.00027501117438077927,-0.0010599065572023392
1782943356986542600,1.91754248046875,0.0017527840100228786,0.0013695703819394112,-0.0012143701314926147
1782943356996527600,1.927527587890625,0.001772183459252119,0.0006313025951385498,-0.0012957481667399406
1782943357006512600,1.9375126953125,-0.00013091135770082474,0.0005729794502258301,0.0009554219432175159
1782943357016497700,1.94749755859375,-0.0004627276211977005,-0.003055575303733349,0.0006916872225701809
1782943357026482700,1.957482666015625,0.00277540972456336,0.0006147930398583412,0.0015987600199878216
1782943357036467500,1.967467529296875,-0.0006776829250156879,0.0002279067412018776,0.0006298450753092766
1782943357046451500,1.977451416015625,-0.0011091148480772972,0.0004694554954767227,0.0012370455078780651
1782943357056436500,1.9874365234375,-0.001192476600408554,-0.0007387809455394745,-0.001285625621676445
1782943357066421800,1.997421875,0.00044989469461143017,0.0004503205418586731,0.000123719684779644
1782943357076406800,2.00740673828125,0.0007167283911257982,0.0013825083151459694,0.0017190594226121902
1782943357086391800,2.017391845703125,-0.0002718367613852024,-0.0007818425074219704,-0.0009840489365160465
1782943357096376600,2.02737646484375,0.001576302805915475,-0.0004934361204504967,0.0003777458332479
1782943357106361600,2.037361572265625,0.0005328764673322439,0.001326833851635456,-0.003330705687403679
1782943357116346600,2.0473466796875,-0.00011501926928758621,0.0015645073726773262,-0.000673412811011076
1782943357126330600,2.05733056640625,0.00046714767813682556,0.0006166882812976837,-0.0007064365781843662
1782943357136315600,2.067315673828125,0.001309982966631651,0.0016598580405116081,0.0007591904141008854
1782943357146300700,2.07730078125,0.00029665022157132626,-0.0011942517012357712,-0.0033386158756911755
1782943357156285400,2.087285400390625,-0.0015846597962081432,-0.0014771725982427597,-0.0012477654963731766
1782943357166270700,2.097270751953125,-0.0015873229131102562,0.00013084430247545242,0.00009366869926452637
1782943357176255700,2.107255859375,0.0010777562856674194,-0.0018002018332481384,0.000612819567322731
1782943357186240800,2.11724072265625,0.003226660890504718,-0.0020468104630708694,-0.0018719094805419445
1782943357196225500,2.1272255859375,0.0010012227576225996,0.0004037376493215561,0.002454940229654312
1782943357206209500,2.13720947265625,-0.0006459425203502178,0.0018506329506635666,0.0002594306133687496
1782943357216194600,2.147194580078125,-0.0013602552935481071,-0.0018651233986020088,-0.00006294623017311096
1782943357226179600,2.1571796875,0.00157108623534441,0.0004496965557336807,0.0008526481688022614
1782943357236164600,2.16716455078125,0.0019129978027194738,0.001427830196917057,0.0017540240660309792
1782943357246149600,2.177149658203125,-0.0015986463986337185,-0.004384518601000309,0.0002139182761311531
1782943357256134700,2.187134765625,0.002359730191528797,0.0010349331423640251,-0.0027474015951156616
1782943357266119700,2.19711962890625,-0.0004834607243537903,-0.0020255716517567635,0.0005583800375461578
1782943357276104700,2.207104736328125,-0.0013862168416380882,-0.001675635576248169,0.0010445467196404934
1782943357286088700,2.217088623046875,-0.0010786219500005245,-0.0007371380925178528,0.000955597497522831
1782943357296073700,2.22707373046875,-0.001506655476987362,0.0007354309782385826,0.00019522709771990776
1782943357306058800,2.237058837890625,-0.002022775821387768,-0.00042410939931869507,-0.0007664398290216923
1782943357316043500,2.24704345703125,-0.0006454344838857651,-0.0028958898037672043,-0.0011152708902955055
1782943357326028500,2.257028564453125,0.00016523199155926704,0.002805139869451523,-0.00048410240560770035
1782943357336013600,2.267013671875,-0.001516709104180336,0.0004525342956185341,0.0006493991240859032
1782943357345998600,2.27699853515625,-0.000506838783621788,-0.0004918230697512627,-0.0013154810294508934
1782943357355983600,2.286983642578125,-0.0012077237479388714,0.0007152995094656944,0.0015658028423786163
1782943357365968600,2.29696875,-0.0014633871614933014,-0.0006985729560256004,-0.002583135385066271
1782943357375952600,2.30695263671875,0.0016350559890270233,-0.00006121490150690079,-0.001116361003369093
1782943357385937700,2.316937744140625,0.0002824363764375448,0.0007513156160712242,0.0009150984697043896
1782943357395922700,2.326922607421875,0.0010591167956590652,0.0003216490149497986,0.0025194999761879444
1782943357405907700,2.33690771484375,0.0034943113569170237,-0.0005209753289818764,-0.0010014655999839306
1782943357415892500,2.346892578125,0.0032888345886021852,-0.0023227091878652573,0.00047505320981144905
1782943357425877500,2.35687744140625,-0.00007819989696145058,-0.00014690682291984558,0.0020090341567993164
1782943357435862500,2.366862548828125,-0.001483292318880558,-0.0008562682196497917,-0.0005990983918309212
1782943357445847800,2.376847900390625,-0.002448687795549631,0.00028596166521310806,0.00252319173887372
1782943357455831600,2.38683154296875,0.0005452637560665607,0.0001276414841413498,0.0011342507787048817
1782943357465816800,2.39681689453125,0.00015537720173597336,-0.0009440146386623383,0.0027137715369462967
1782943357475801600,2.406801513671875,0.00048019434325397015,0.0014777183532714844,-0.0005872538313269615
1782943357485786600,2.41678662109375,0.0010676875244826078,0.0022833235561847687,0.00033393315970897675
1782943357495771600,2.426771728515625,-0.0025767311453819275,-0.001317087560892105,0.0017717736773192883
1782943357505756700,2.436756591796875,-0.001400146633386612,0.0004384675994515419,0.0005195550620555878
1782943357515741400,2.446741455078125,0.00006720656529068947,0.001273931935429573,0.001556409988552332
1782943357525726200,2.456726318359375,0.0022712387144565582,0.00170829426497221,-0.0006071417592465878
1782943357535710200,2.466710205078125,-0.0021029766649007797,0.000780799426138401,-0.003486893605440855
1782943357545695200,2.4766953125,0.0006584548391401768,0.0008827988058328629,-0.0008253301493823528
1782943357555680300,2.48668017578125,-0.00008069956675171852,-0.0009825648739933968,-0.000013168435543775558
1782943357565665300,2.496665283203125,-0.00018269848078489304,0.00016419216990470886,0.0011048265732824802
1782943357575650300,2.506650390625,0.000907892594113946,0.0019592121243476868,-0.001351222861558199
1782943357585635000,2.516635009765625,0.0003414382226765156,-0.00025973375886678696,-0.0011546812020242214
1782943357595620000,2.5266201171875,0.0000895247794687748,-0.002031276933848858,0.002168097998946905
1782943357605605400,2.53660546875,0.0017939477693289518,-0.0002568121999502182,-0.00042715249583125114
1782943357615589000,2.546589111328125,-0.00005527865141630173,-0.00012209825217723846,-0.000587080605328083
1782943357625574400,2.556574462890625,-0.001539724413305521,-0.0012526102364063263,0.00023876549676060677
1782943357635559400,2.566559326171875,-0.0009423685260117054,0.0033292602747678757,-0.000373227521777153
1782943357645544200,2.576544189453125,0.0016616701614111662,-0.002213575877249241,0.00036686472594738007
1782943357655529200,2.586529296875,-0.00045244861394166946,0.000736461952328682,-0.0024189958348870277
1782943357665514200,2.59651416015625,-0.0017137215472757816,-0.0010771509259939194,0.0003232615999877453
1782943357675499300,2.606499267578125,-0.00021694740280508995,0.001817799173295498,0.00015203235670924187
1782943357685484300,2.616484375,0.0007013105787336826,0.00028594862669706345,-0.0001744711771607399
1782943357695469000,2.626468994140625,0.0009865781757980585,0.0003229184076189995,-0.000549673568457365
1782943357705453000,2.636453125,0.000884579261764884,0.0008552847430109978,0.00028096605092287064
1782943357715438300,2.646438232421875,-0.00035534752532839775,0.0007666340097784996,-0.002113834023475647
1782943357725423400,2.65642333984375,-0.001882936805486679,-0.0023380788043141365,0.002242298796772957
1782943357735408400,2.666408447265625,-0.0005243979394435883,0.0021326113492250443,0.0017848988063633442
1782943357745393200,2.67639306640625,-0.00007245969027280807,0.0037882979959249496,-0.0004825163632631302
1782943357755378200,2.686378173828125,0.000015865545719861984,0.0002852408215403557,-0.0016174656338989735
1782943357765363200,2.69636328125,-0.0016169184818863869,-0.001120641827583313,0.0030880733393132687
1782943357775348200,2.70634814453125,0.0014163467567414045,-0.0002534659579396248,0.001388566568493843
1782943357785332200,2.716332275390625,0.0005239213351160288,-0.0012947618961334229,0.0006071948446333408
1782943357795317200,2.726317138671875,-0.00007224734872579575,0.0003064814954996109,-0.0034591499716043472
1782943357805302000,2.736302001953125,-0.00002297898754477501,-0.0007204329594969749,-0.0014154398813843727
1782943357815287300,2.746287353515625,-0.000632100272923708,-0.0007470138370990753,-0.0025146142579615116
1782943357825272300,2.756272216796875,-0.0013354411348700523,-0.0022900495678186417,-0.00008447933942079544
1782943357835257300,2.76625732421875,0.000696809496730566,0.0018043536692857742,0.0001822030171751976
1782943357845242400,2.776242431640625,0.0010028067044913769,0.0017886413261294365,-0.0019051823765039444
1782943357855227100,2.78622705078125,-0.0004072762094438076,0.0006993170827627182,-0.0003479798324406147
1782943357865211100,2.796211181640625,-0.0013798628933727741,0.0005722837522625923,0.0011905282735824585
1782943357875196200,2.806196044921875,-0.0007902020588517189,-0.0020964592695236206,-0.0010086596012115479
1782943357885181200,2.81618115234375,0.0002351151779294014,0.0012519331648945808,0.001922947820276022
1782943357895166200,2.826166259765625,-0.0012354007922112942,-0.0005766144022345543,-0.0009812493808567524
1782943357905151500,2.8361513671875,-0.0006052972748875618,-0.0012658406049013138,-0.000932247843593359
1782943357915136300,2.84613623046875,0.0002322993241250515,0.0007877219468355179,-0.00023034261539578438
1782943357925121300,2.856121337890625,0.00029701413586735725,-0.0023476174101233482,-0.0006029191426932812
1782943357935106300,2.866106201171875,0.0004771607927978039,-0.00033686496317386627,-0.0014402861706912518
1782943357945091300,2.87609130859375,0.00025265617296099663,0.00075503159314394,-0.0005579809658229351
1782943357955075300,2.886075439453125,0.000021770596504211426,0.001211671158671379,0.0026731141842901707
1782943357965060400,2.896060302734375,-0.0003055320121347904,-0.0012472253292798996,0.0012475242838263512
1782943357975045000,2.906045166015625,-0.0011825896799564362,0.000026440247893333435,0.0015804795548319817
1782943357985030100,2.916030029296875,-0.00008510099723935127,0.0018155518919229507,-0.0009553823620080948
1782943357995015200,2.92601513671875,-0.0023852181620895863,-0.0005379961803555489,0.0013686814345419407
1782943358005000400,2.93600048828125,0.0013325545005500317,-0.001494869589805603,0.0003646695986390114
1782943358014985200,2.945985107421875,-0.0007789367809891701,0.0010397545993328094,0.0016757589764893055
1782943358024970200,2.95597021484375,-0.00008758017793297768,0.0005132472142577171,-0.0013309502974152565
1782943358034954200,2.965954345703125,0.00018479349091649055,-0.0015319567173719406,0.00020575523376464844
1782943358044939300,2.975939208984375,-0.002273836638778448,0.00011920370161533356,-0.0008725589141249657
1782943358054924300,2.98592431640625,-0.00020294217392802238,-0.0009934986010193825,0.0015828474424779415
1782943358064909300,2.995909423828125,0.0013560722582042217,0.0016169315204024315,-0.0013511572033166885
1782943358074894000,3.00589404296875,0.0032768629025667906,0.0018017664551734924,-0.00027617160230875015
1782943358084879000,3.015879150390625,-0.0002811201848089695,0.0017439760267734528,0.00048229703679680824
1782943358094864400,3.025864501953125,0.0007515563629567623,-0.00009927432984113693,0.0019711065106093884
1782943358104849400,3.035849365234375,-0.001028766855597496,-0.0010928995907306671,-0.0003479737788438797
1782943358114834400,3.04583447265625,0.00037368363700807095,-0.0007752282544970512,0.00004322407767176628
1782943358124818400,3.055818359375,0.00103681068867445,0.001855708658695221,-0.000020425301045179367
1782943358134803200,3.06580322265625,0.002147626830264926,0.0011113686487078667,0.000747287180274725
1782943358144788200,3.075788330078125,-0.0015682815574109554,0.0012581096962094307,-0.003155308775603771
1782943358154773200,3.085773193359375,0.00010289391502737999,0.0012135524302721024,0.0011945567093789577
1782943358164758300,3.09575830078125,0.0023913481272757053,0.0009387144818902016,-0.002555440180003643
1782943358174743300,3.105743408203125,-0.0009392988868057728,0.0007894681766629219,0.001606097910553217
1782943358184728000,3.11572802734375,0.002122271340340376,-0.00045742373913526535,0.00002391403540968895
1782943358194713300,3.12571337890625,0.002243337221443653,0.0009801611304283142,0.0013299304991960526
1782943358204697300,3.135697265625,-0.00017561204731464386,0.00008667074143886566,0.0005200635641813278
1782943358214682400,3.145682373046875,0.00010499078780412674,-0.0009314557537436485,0.0013070027343928814
1782943358224667400,3.15566748046875,-0.0026841377839446068,-0.00027605239301919937,-0.0015431120991706848
1782943358234652200,3.165652099609375,-0.00019509298726916313,-0.0006438912823796272,0.00015333294868469238
1782943358244637200,3.17563720703125,0.0006320849061012268,-0.0002625267952680588,-0.0019681411795318127
1782943358254622200,3.185622314453125,-0.0007814140990376472,-0.0020895209163427353,0.0007249312475323677
1782943358264607200,3.195607177734375,0.0017073096241801977,-0.000978982076048851,-0.002353150397539139
1782943358274592300,3.20559228515625,-0.00163745554164052,0.0002476312220096588,-0.0016640061512589455
1782943358284576300,3.215576171875,-0.0012574223801493645,-0.002348417416214943,-0.0003294963389635086
1782943358294561000,3.22556103515625,0.00042168470099568367,0.0017394116148352623,0.0007358482107520103
1782943358304546300,3.23554638671875,0.0006629670970141888,-0.0002164142206311226,0.0014200140722095966
1782943358314531300,3.24553125,0.0015785624273121357,0.0016971519216895103,-0.001335442066192627
1782943358324516400,3.255516357421875,0.001362580107524991,-0.00002884306013584137,-0.0015242602676153183
1782943358334501400,3.26550146484375,-0.0010631768964231014,-0.0025815265253186226,0.0003679990768432617
1782943358344486100,3.275486083984375,-0.00011269468814134598,-0.0006054611876606941,0.0013043666258454323
1782943358354471200,3.28547119140625,0.0006971764378249645,-0.0018075071275234222,0.0027445554733276367
1782943358364456200,3.295456298828125,-0.0009952625259757042,0.0010561896488070488,-0.00026801181957125664
1782943358374440200,3.305440185546875,-0.0024945265613496304,-0.0006416961550712585,0.00015174690634012222
1782943358384425200,3.31542529296875,-0.002556578256189823,-0.0011836495250463486,0.0017312676645815372
1782943358394410500,3.325410400390625,-0.0007660826668143272,-0.0010814843699336052,-0.00012926151975989342
1782943358404395300,3.335395263671875,0.001175095560029149,0.000027456320822238922,0.0015511931851506233
1782943358414380300,3.34538037109375,0.0019413367845118046,-0.0008285073563456535,0.0008284235373139381
1782943358424365300,3.355365234375,0.00046168453991413116,-0.0017182687297463417,-0.0003172685392200947
1782943358434350300,3.365350341796875,0.0015387097373604774,0.0010637491941452026,0.0003005922771990299
1782943358444335000,3.375335205078125,0.002441521268337965,-0.0007370803505182266,-0.0012235348112881184
1782943358454319400,3.3853193359375,-0.0011622272431850433,0.002760934643447399,0.0004441607743501663
1782943358464304000,3.39530419921875,-0.0007007014937698841,-0.00006947293877601624,-0.000821906141936779
1782943358474289200,3.4052890625,-0.0006397389806807041,0.0012710029259324074,-0.002484457567334175
1782943358484274200,3.415274169921875,0.002296662423759699,-0.0023437058553099632,0.0014058882370591164
1782943358494259500,3.425259521484375,-0.0006731832399964333,0.0016916627064347267,-0.0027232314459979534
1782943358504244200,3.435244140625,0.0003468072973191738,0.00017286185175180435,-0.0002965587191283703
1782943358514229000,3.44522900390625,-0.00017867935821413994,0.0008035460487008095,0.0014045294374227524
1782943358524214000,3.455214111328125,-0.0005978606641292572,0.0008291127160191536,0.0010758955031633377
1782943358534199300,3.46519921875,0.0011945436708629131,-0.0007935687899589539,0.00033596670255064964
1782943358544183000,3.47518310546875,-0.000044891610741615295,-0.0018937205895781517,0.0007546157576143742
1782943358554168300,3.485168212890625,0.00030649476684629917,-0.001071840524673462,0.0011267997324466705
1782943358564153000,3.495153076171875,-0.0014780894853174686,-0.0031821290031075478,0.00008523743599653244
1782943358574138000,3.50513818359375,0.0025039948523044586,0.0016998974606394768,-0.002148033119738102
1782943358584123100,3.515123046875,-0.0010244273580610752,0.0007267789915204048,-0.002192508429288864
1782943358594108200,3.525108154296875,-0.0014463705010712147,-0.002156902104616165,-0.000684014055877924
1782943358604093200,3.53509326171875,0.0013587367720901966,-0.00032784324139356613,0.0022001895122230053
1782943358614078000,3.545077880859375,0.0011804902460426092,0.0014702202752232552,0.0025341836735606194
1782943358624062000,3.55506201171875,-0.0004147430881857872,-0.0006962614133954048,0.0030628209933638573
1782943358634047000,3.565046875,-0.0017836019396781921,0.0003213686868548393,-0.0005737952888011932
1782943358644032300,3.5750322265625,0.000045190565288066864,0.001431373879313469,0.00045125512406229973
1782943358654017300,3.585017333984375,0.0013724684249609709,-0.0011798515915870667,0.0007547060959041119
1782943358664002300,3.595002197265625,-0.0003721681423485279,-0.0018459083512425423,0.000017809215933084488
1782943358673987000,3.604987060546875,0.0007395369466394186,0.0007288539782166481,0.0005327179096639156
1782943358683972000,3.61497216796875,0.0011235647834837437,0.0017235446721315384,-0.0009160423651337624
1782943358693957000,3.62495703125,0.0011913401540368795,-0.0008597122505307198,0.002449081279337406
1782943358703942100,3.634942138671875,0.0007210259791463614,-0.0009992625564336777,-0.00012299977242946625
1782943358713926100,3.644926025390625,0.0027318226639181376,-0.0009301220998167992,0.00035954685881733894
1782943358723911200,3.6549111328125,0.0007387129589915276,-0.003347739577293396,0.0006495648995041847
1782943358733896000,3.66489599609375,0.0008388913702219725,0.00004278309643268585,-0.0023023048415780067
1782943358743881200,3.674881103515625,-0.00031745340675115585,-0.001279742456972599,0.0008322359062731266
1782943358753866200,3.6848662109375,-0.001341142226010561,-0.0007157325744628906,0.003459756262600422
1782943358763851300,3.694851318359375,0.00033851340413093567,0.0005460726097226143,0.001841086894273758
1782943358773836000,3.7048359375,0.0022479721810668707,-0.00043212249875068665,-0.0002690921537578106
1782943358783821000,3.714821044921875,-0.00037976913154125214,0.0011553876101970673,0.000700831413269043
1782943358793805000,3.72480517578125,0.0007589180022478104,-0.00045496411621570587,0.0008422485552728176
1782943358803790000,3.7347900390625,0.0013812987599521875,0.0026486841961741447,-0.002133833710104227
1782943358813775000,3.744775146484375,-0.0009219939820468426,-0.0007903994992375374,-0.002073111943900585
1782943358823760100,3.754760009765625,-0.001637585461139679,0.0014836741611361504,-0.00013433117419481277
1782943358833745200,3.7647451171875,0.0009136316366493702,0.001435224898159504,0.0006815246306359768
1782943358843730200,3.774730224609375,-0.0010560424998402596,-0.0012263385578989983,-0.0011376808397471905
1782943358853715200,3.784715087890625,-0.000022831372916698456,0.0001828763633966446,-0.0013421126641333103
1782943358863700200,3.7947001953125,0.001049623591825366,0.0008611828088760376,0.0008672461844980717
1782943358873685200,3.804685302734375,-0.0016775489784777164,-0.00288498867303133,0.00030433572828769684
1782943358883669200,3.814669189453125,-0.000998176634311676,-0.0020634038373827934,0.002113154623657465
1782943358893654000,3.824654052734375,-0.000005205627530813217,0.0007424596697092056,0.0002337195910513401
1782943358903639000,3.83463916015625,0.003148243762552738,0.003598700277507305,-0.0009316797368228436
1782943358913624000,3.8446240234375,-0.00008492404595017433,0.00043723080307245255,-0.0012763352133333683
1782943358923609000,3.854609130859375,0.00009830156341195107,0.0033603161573410034,-0.002745335455983877
1782943358933594000,3.864593994140625,0.00017605070024728775,-0.0011283690109848976,0.00017575174570083618
1782943358943579100,3.8745791015625,0.0010445076040923595,0.002578219398856163,-0.0011952430941164494
1782943358953564200,3.884564208984375,-0.0014663422480225563,0.000024273991584777832,-0.0020637381821870804
1782943358963549200,3.894549072265625,-0.00129270413890481,0.0025521470233798027,0.0013251346535980701
1782943358973533200,3.904533203125,0.001305238576605916,-0.00039461255073547363,-0.0003443877212703228
1782943358983518200,3.914518310546875,0.0008335926104336977,0.0005902247503399849,0.0006329924799501896
1782943358993503000,3.9245029296875,-0.0009903223253786564,0.0007939357310533524,0.0003931117244064808
1782943359003488000,3.934488037109375,-0.001632943283766508,0.00033560581505298615,0.000860762782394886
1782943359013473000,3.94447314453125,-0.00010487111285328865,-0.000731966458261013,-0.0008439579978585243
1782943359023458300,3.954458251953125,-0.0022489819675683975,-0.0006190482527017593,-0.002377406693994999
1782943359033443300,3.964443359375,-0.0014760596677660942,-0.0022350065410137177,0.0002825814299285412
1782943359043428000,3.974427978515625,-0.000470183789730072,-0.0008754627779126167,0.0010634204372763634
1782943359053412000,3.984412109375,-0.001146053895354271,-0.0006894506514072418,-0.001038743183016777
1782943359063394000,3.99439404296875,-0.00009969808161258698,0.00016169529408216476,-0.0026321131736040115
1782943359073379000,4.004379150390625,0.0005943241994827986,0.00047110114246606827,0.001663179136812687
1782943359083364400,4.0143642578125,-0.0007092934101819992,-0.0008783219382166862,0.0014871442690491676
1782943359093349000,4.02434912109375,0.0013364928308874369,-0.0009754467755556107,-0.00019519450142979622
1782943359103334100,4.034334228515625,0.000887483824044466,-0.0003221733495593071,0.002988081891089678
1782943359113318100,4.044318115234375,-0.0015181764028966427,0.0002628816291689873,0.000019782688468694687
1782943359123303200,4.05430322265625,-0.00006595486775040627,-0.0005906615406274796,-0.0012484141625463963
1782943359133288200,4.0642880859375,0.0016046708915382624,-0.0006809430196881294,-0.00015205983072519302
1782943359143273200,4.074273193359375,-0.0006662067025899887,0.0027220435440540314,-0.0009406218305230141
1782943359153258000,4.084258056640625,-0.00020194659009575844,0.0023706285282969475,-0.00030066026374697685
1782943359163243000,4.094242919921875,0.000468370970338583,-0.0017841681838035583,-0.0013989484868943691
1782943359173228000,4.10422802734375,0.0013279723934829235,-0.0002900362014770508,0.0006471560336649418
1782943359183213300,4.11421337890625,0.0010605910792946815,-0.0010892506688833237,0.0018445132300257683
1782943359193197300,4.124197265625,0.0022263142745941877,-0.0023833056911826134,0.002664008177816868
1782943359203182300,4.134182373046875,0.00033440464176237583,-0.0011273585259914398,0.0006469301879405975
1782943359213167000,4.1441669921875,-0.0017705932259559631,0.0012326911091804504,-0.0006814352236688137
1782943359223152000,4.154152099609375,0.0005412967875599861,-0.0010304637253284454,0.0013870415277779102
1782943359233137200,4.16413720703125,0.000595014076679945,-0.0001425156369805336,-0.002316507510840893
1782943359243122200,4.1741220703125,0.0004272349178791046,0.0010854676365852356,-0.00006294064223766327
1782943359253107000,4.18410693359375,0.0010813463013619184,0.0004818718880414963,0.0004471512511372566
1782943359263092000,4.194092041015625,-0.0011711553670465946,0.001852334477007389,-0.0012857681140303612
1782943359273077200,4.2040771484375,-0.0009062997996807098,0.0025372961536049843,0.0003649764694273472
1782943359283061000,4.21406103515625,-0.0004703402519226074,-0.0006009731441736221,-0.0004720548167824745
1782943359293046300,4.22404638671875,0.0010959827341139317,-0.0009083086624741554,-0.0009716544300317764
1782943359303031300,4.23403125,0.00018731225281953812,0.00030129868537187576,-0.0007301056757569313
1782943359313016000,4.24401611328125,-0.00021129939705133438,0.0029513072222471237,-0.0006988714449107647
1782943359323001000,4.2540009765625,-0.0025506201200187206,0.0011965511366724968,0.0001493454910814762
1782943359332986000,4.263986083984375,-0.0004735472612082958,0.002668735571205616,-0.0024031749926507473
1782943359342971100,4.27397119140625,-0.00011774897575378418,0.0003145011141896248,-0.002834873739629984
1782943359352956200,4.2839560546875,0.0003320996183902025,0.0014510629698634148,0.0023554028011858463
1782943359362940200,4.293940185546875,0.0006274441257119179,-0.0006096912547945976,0.0014523249119520187
1782943359372925000,4.303925048828125,0.0007028644904494286,-0.001347934827208519,-0.0012243296951055527
1782943359382910200,4.31391015625,0.0014304399956017733,-0.002857147715985775,-0.0007889028638601303
1782943359392895200,4.323895263671875,-0.0015699556097388268,-0.0006498498842120171,-0.0030164499767124653
1782943359402880300,4.33388037109375,-0.00038990937173366547,0.0008274056017398834,-0.0012505077756941319
1782943359412865300,4.343865234375,0.0006684120744466782,0.00014359969645738602,0.0000561252236366272
1782943359422850000,4.35385009765625,-0.0009334790520370007,0.00008660834282636642,0.0006092637777328491
1782943359432835000,4.3638349609375,0.0016779673751443624,0.0010974612087011337,0.0014207097701728344
1782943359442820000,4.373820068359375,-0.0008035660721361637,-0.000604565255343914,-0.0009188773110508919
1782943359452804000,4.38380419921875,0.00229811342433095,0.0004365714266896248,-0.0010451916605234146
1782943359462789000,4.3937890625,-0.00206441106274724,0.0016613584011793137,-0.001222025603055954
1782943359472774100,4.403774169921875,-0.0014089969918131828,-0.0019441153854131699,-0.001993774436414242
1782943359482759200,4.41375927734375,-0.0012710453011095524,0.0019853785634040833,0.0003825635649263859
1782943359492744200,4.423744140625,-0.002243142109364271,-0.0004135509952902794,-0.0011753635480999947
1782943359502729200,4.433729248046875,-0.0005829273723065853,0.0017899489030241966,-0.0010483311489224434
1782943359512714200,4.44371435546875,-0.0012844675220549107,0.0010470813140273094,-0.0010901899076998234
1782943359522699300,4.45369921875,-0.0021103136241436005,0.0004715723916888237,0.0007324777543544769
1782943359532684300,4.463684326171875,0.00031967414543032646,0.000020449981093406677,0.0009314012713730335
1782943359542668300,4.473668212890625,-0.0003040381707251072,0.00036958977580070496,-0.0005623651668429375
1782943359552653300,4.4836533203125,0.00015914905816316605,-0.0011185584589838982,-0.000872370321303606
1782943359562638300,4.493638427734375,-0.00008719367906451225,0.001673499122262001,0.001608098391443491
1782943359572623400,4.503623291015625,-0.0020753522403538227,0.000058445148169994354,0.0016100583598017693
1782943359582608100,4.513608154296875,0.0019265799783170223,-0.0008129412308335304,0.0011080526746809483
1782943359592593200,4.52359326171875,0.001237564953044057,0.002149493433535099,-0.0006568692624568939
1782943359602578200,4.533578125,-0.0008588754571974277,-0.000410337932407856,-0.0008813738822937012
1782943359612563500,4.5435634765625,0.000128298532217741,0.0002467334270477295,-0.0010021324269473553
1782943359622547200,4.553547119140625,0.0012897031847387552,0.00041344668716192245,-0.0013291682116687298
1782943359632532500,4.563532470703125,-0.00021956395357847214,-0.0017886105924844742,-0.0006390847265720367
1782943359642517200,4.573517333984375,-0.0016137287020683289,0.0015837503597140312,-0.001916869543492794
1782943359652502300,4.583502197265625,-0.0005798456259071827,0.0021093664690852165,-0.001353191677480936
1782943359662487300,4.5934873046875,-0.0002043396234512329,-0.00013141799718141556,-0.0010266886092722416
1782943359672472300,4.603472412109375,0.0021933491807430983,0.0013645077124238014,-0.00030624866485595703
1782943359682457000,4.61345703125,-0.00047220848500728607,0.00031682010740041733,0.002103379461914301
1782943359692442000,4.623442138671875,0.0009673289023339748,-0.00216799508780241,0.002604433335363865
1782943359702428400,4.633428466796875,-0.00048569170758128166,0.001773749478161335,0.000146601814776659
1782943359712412400,4.643412353515625,-0.00018616486340761185,0.0030667465180158615,-0.0016013113781809807
1782943359722397400,4.6533974609375,0.00021943449974060059,-0.0008819224312901497,-0.0001067453995347023
1782943359732382200,4.66338232421875,0.00018118135631084442,-0.000533529557287693,0.00047685857862234116
1782943359742367200,4.6733671875,0.000009673647582530975,0.0012768879532814026,-0.0011434084735810757
1782943359752352300,4.683352294921875,0.0014497714582830667,-0.0006470950320363045,0.0002333107404410839
1782943359762337300,4.693337158203125,-0.000620303675532341,-0.0018399255350232124,0.0012799333781003952
1782943359772322300,4.703322265625,-0.0023720357567071915,-0.00012094806879758835,-0.002449694089591503
1782943359782307000,4.71330712890625,0.00020217569544911385,-0.0012578517198562622,0.00034023309126496315
1782943359792292400,4.723292236328125,0.0005942543502897024,-0.002049049362540245,0.000810741912573576
1782943359802276400,4.7332763671875,0.000724483048543334,-0.0005467599257826805,-0.00022496143355965614
1782943359812261400,4.743261474609375,0.00022499868646264076,-0.0006099063903093338,0.000706356018781662
1782943359822246400,4.753246337890625,0.0003131492994725704,-0.002481842413544655,-0.0003932630643248558
1782943359832231200,4.763231201171875,-0.00024242885410785675,-0.0009375503286719322,-0.0012245522812008858
1782943359842216200,4.77321630859375,-0.0012331251055002213,0.002271026372909546,0.0027014794759452343
1782943359852201200,4.783201171875,-0.0003993087448179722,0.0006785867735743523,0.0009404714219272137
1782943359862186200,4.793186279296875,0.0011549119371920824,0.0002820417284965515,0.0006472575478255749
1782943359872171300,4.803171142578125,-0.00006361538544297218,0.0010862434282898903,-0.00019047781825065613
1782943359882156300,4.81315625,-0.0014633731916546822,0.0013155415654182434,-0.0005316287279129028
1782943359892140000,4.82314013671875,-0.00042022718116641045,-0.0010959059000015259,0.0002873404882848263
1782943359902125300,4.833125244140625,0.00015980936586856842,-0.0004178648814558983,0.0020665982738137245
1782943359912110300,4.8431103515625,0.0019153100438416004,-0.00009758397936820984,0.00006761448457837105
1782943359922095400,4.853095458984375,0.00040716188959777355,0.000190037302672863,-0.00202776025980711
1782943359932080400,4.863080322265625,-0.002410554327070713,-0.0006269309669733047,-0.0005489005707204342
1782943359942065200,4.873065185546875,-0.0010062693618237972,-0.003013656474649906,0.0016607241705060005
1782943359952050200,4.88305029296875,0.0011494273785501719,0.0022673439234495163,0.001514354720711708
1782943359962035200,4.89303515625,0.0008828449063003063,0.001642034389078617,-0.0005682376213371754
1782943359972019200,4.903019287109375,0.000573970377445221,-0.0007971590384840965,0.0009399275295436382
1782943359982004200,4.913004150390625,0.0018634728621691465,-0.00025999918580055237,0.0008198185823857784
1782943359991989200,4.9229892578125,0.000829937169328332,-0.0005524475127458572,0.0016814963892102242
1782943360001974300,4.932974365234375,0.0003303282428532839,-0.0010520564392209053,-0.0008370550349354744
1782943360011959300,4.942959228515625,0.0006920886225998402,0.0008316012099385262,-0.0010629547759890556
1782943360021944300,4.9529443359375,0.0019866512157022953,-0.0009023826569318771,0.0038034396711736917
1782943360031929300,4.962929443359375,-0.0004983735270798206,-0.002575497142970562,0.0012962548062205315
1782943360041914000,4.9729140625,-0.0013386011123657227,-0.0011757398024201393,-0.00355708971619606
1782943360051899100,4.982899169921875,0.0020173238590359688,0.002896469086408615,-0.0007587121799588203
1782943360061883100,4.992883056640625,-0.0004943031817674637,-0.0032261377200484276,-0.00199175626039505
1782943360071868200,5.0028681640625,-0.0016919397749006748,-0.00197632797062397,-0.0005507823079824448
1782943360081853200,5.012853271484375,-0.00035742949694395065,0.0016857841983437538,-0.0019151195883750916
1782943360091838500,5.02283837890625,-0.000027970876544713974,0.0013893228024244308,-0.001258869655430317
1782943360101823200,5.0328232421875,-0.0015907138586044312,-0.0010394798591732979,-0.00024926476180553436
1782943360111808300,5.042808349609375,0.0018043001182377338,-0.00007910002022981644,-0.0013710157945752144
1782943360121793300,5.052793212890625,-0.0007249037735164165,0.0007243752479553223,0.0004987893626093864
1782943360131778300,5.0627783203125,-0.000004395842552185059,-0.00006236229091882706,0.0022395746782422066
1782943360141762300,5.07276220703125,-0.00002676667645573616,-0.0011558560654520988,0.002104019746184349
1782943360151747300,5.082747314453125,-0.0015629008412361145,0.00007239077240228653,0.002773204818367958
1782943360161732000,5.092732177734375,0.00023313472047448158,-0.001688491553068161,0.0004072524607181549
1782943360171717000,5.102717041015625,-0.00038660597056150436,-0.000010614283382892609,-0.002386566251516342
1782943360181702400,5.112702392578125,-0.0012763682752847672,0.0021737096831202507,0.0010465150699019432
1782943360191687400,5.1226875,-0.002523559145629406,0.0018164357170462608,0.00026042619720101357
1782943360201672200,5.132672119140625,0.00018940307199954987,0.000414813868701458,0.0019771000370383263
1782943360211657200,5.1426572265625,-0.0005334541201591492,-0.0007143998518586159,0.0036220569163560867
1782943360221642200,5.152642333984375,-0.0008048298768699169,-0.0013650106266140938,-0.00029705045744776726
1782943360231626200,5.162626220703125,0.0014932560734450817,0.0007545389235019684,0.0015012784861028194
1782943360241611300,5.172611328125,0.0012743440456688404,0.0013883709907531738,0.000754261389374733
1782943360251596300,5.18259619140625,0.00007616961374878883,0.0013808906078338623,0.00011879391968250275
1782943360261581000,5.1925810546875,-0.0019393106922507286,-0.0007515018805861473,0.0015326659195125103
1782943360271566000,5.202566162109375,-0.0004385141655802727,-0.0024853358045220375,-0.0008251830004155636
1782943360281551400,5.21255126953125,-0.0017184293828904629,-0.0018914509564638138,-0.0002936157397925854
1782943360291536400,5.222536376953125,0.0014850364532321692,-0.0006651580333709717,0.001779431477189064
1782943360301521400,5.232521484375,0.0020509581081569195,0.0016901418566703796,0.00023399898782372475
1782943360311505400,5.24250537109375,-0.00018728431314229965,0.0004812302067875862,-0.001416434533894062
1782943360321490200,5.252490234375,-0.0000013955868780612946,0.00047830119729042053,-0.0006752768531441689
1782943360331475200,5.26247509765625,0.0011668819934129715,-0.00014825444668531418,0.0006914609111845493
1782943360341460200,5.272460205078125,0.0008499659597873688,-0.0012076599523425102,0.0003825342282652855
1782943360351445200,5.2824453125,-0.0011053751222789288,-0.0015187282115221024,-0.0015652216970920563
1782943360361430300,5.29243017578125,-0.0014582439325749874,-0.00005585327744483948,0.00018554087728261948
1782943360371415300,5.302415283203125,-0.00023483531549572945,0.00008253753185272217,-0.0010041692294180393
1782943360381400300,5.312400390625,-0.0003597377799451351,0.000574156641960144,0.0010395403951406479
1782943360391385300,5.32238525390625,-0.000043598003685474396,0.000793791376054287,0.0017697750590741634
1782943360401369300,5.332369384765625,0.0014624197501689196,0.0003176182508468628,0.0005497811362147331
1782943360411354400,5.342354248046875,0.00005056941881775856,0.0002182433381676674,-0.0009618028998374939
1782943360421339400,5.35233935546875,0.0014577838592231274,-0.0018726037815213203,0.00020838994532823563
1782943360431324200,5.36232421875,-0.0012520342133939266,-0.0003348095342516899,0.0002073291689157486
1782943360441309200,5.37230908203125,0.001267316285520792,-0.0015145903453230858,-0.00004993239417672157
1782943360451294200,5.382294189453125,-0.0009574904106557369,-0.0012698881328105927,-0.0004998142831027508
1782943360461279200,5.392279296875,0.0012505364138633013,0.00014717970043420792,-0.000993830617517233
1782943360471264300,5.40226416015625,0.00013835914433002472,0.00030115339905023575,-0.0021702791564166546
1782943360481249300,5.412249267578125,0.0007857733871787786,-0.0015585320070385933,0.0007805037312209606
1782943360491233300,5.4222333984375,0.0007058999035507441,-0.001128578558564186,-0.0015047318302094936
1782943360501218300,5.43221826171875,-0.0003620279021561146,0.0007361667230725288,0.001937403343617916
1782943360511203300,5.442203369140625,-0.0011912044137716293,-0.00007798243314027786,-0.0013130344450473785
1782943360521192700,5.452192626953125,0.00005382345989346504,0.00007914379239082336,0.0007698242552578449
1782943360531177700,5.462177734375,0.0006259055808186531,0.0009231772273778915,0.001264339778572321
1782943360541162800,5.472162841796875,-0.0007906295359134674,-0.0011953674256801605,0.0011655366979539394
1782943360551147800,5.482147705078125,0.0007138019427657127,0.0013622324913740158,-0.0029490613378584385
1782943360561132500,5.492132568359375,0.0017758705653250217,0.0021350812166929245,-0.00014075776562094688
1782943360571116800,5.50211669921875,-0.0014284821227192879,-0.0019812770187854767,-0.00002050912007689476
1782943360581101600,5.5121015625,-0.002476436085999012,-0.0024217646569013596,0.0025867256335914135
1782943360591086800,5.5220869140625,0.00023762136697769165,0.002092803828418255,0.001170148141682148
1782943360601071900,5.53207177734375,-0.001655619591474533,-0.0008380040526390076,-0.00022614700719714165
1782943360611057000,5.542056884765625,-0.0002148379571735859,-0.00199870765209198,0.0009629847481846809
1782943360621041700,5.552041748046875,-0.00041590631008148193,-0.0003779083490371704,0.0001174313947558403
1782943360631026700,5.562026611328125,0.0030489612836390734,0.0006284303963184357,-0.000606282614171505
1782943360641011700,5.57201171875,-0.0010211477056145668,0.002289176918566227,-0.0007298532873392105
1782943360650996700,5.581996826171875,0.0006002155132591724,0.0031861038878560066,-0.001061195507645607
1782943360660980700,5.591980712890625,0.0013775923289358616,-0.0004946505650877953,0.0016227378509938717
1782943360670965800,5.6019658203125,-0.002092920709401369,0.0006483299657702446,0.002210540696978569
1782943360680950500,5.611950439453125,-0.00012963823974132538,0.0012792330235242844,-0.000993508379906416
1782943360690935800,5.621935791015625,0.0012498553842306137,-0.0008223839104175568,-0.0012419037520885468
1782943360700920800,5.6319208984375,0.0012911343947052956,-0.0017369138076901436,-0.000973457470536232
1782943360710905900,5.64190576171875,0.00020448770374059677,-0.00019273627549409866,-0.0006589549593627453
1782943360720891000,5.651890869140625,0.0015160946641117334,-0.001047610305249691,-0.001024607103317976
1782943360730875600,5.661875732421875,0.0009136740118265152,-0.001621677540242672,-0.002318392042070627
1782943360740860700,5.671860595703125,0.000571457901969552,0.0003847479820251465,-0.0003335387445986271
1782943360750844700,5.6818447265625,0.00031541381031274796,-0.000017208978533744812,-0.001202405896037817
1782943360760829700,5.69182958984375,0.0009593663271516562,-0.0012310780584812164,-0.000029549933969974518
1782943360770814700,5.701814697265625,0.0008764211088418961,0.000525355339050293,0.0005609877407550812
1782943360780799700,5.7117998046875,0.00027641095221042633,-0.00016094185411930084,-0.0021032383665442467
1782943360790784800,5.72178466796875,0.001252470538020134,-0.0029561789706349373,0.0010209293104708195
1782943360800769800,5.731769775390625,0.0020423640962690115,-0.002038720063865185,0.0009687314741313457
1782943360810754800,5.7417548828125,-0.0004480360075831413,0.003633219748735428,0.0017410018481314182
1782943360820739800,5.75173974609375,0.001206852262839675,0.0002970779314637184,0.0006594923324882984
1782943360830724600,5.761724609375,-0.00247628940269351,0.000023449771106243134,-0.0017925603315234184
1782943360840708600,5.77170849609375,-0.003843023907393217,-0.0010455427691340446,0.0011214707046747208
1782943360850693600,5.781693603515625,0.00007048388943076134,-0.0008695917204022408,-0.00034928787499666214
1782943360860678700,5.7916787109375,0.00018127122893929482,0.0004060622304677963,0.0021205274388194084
1782943360870663700,5.80166357421875,-0.0013987100683152676,0.00052694883197546,0.0016377801075577736
1782943360880649000,5.81164892578125,0.0001283464953303337,-0.0007250038906931877,0.0022433828562498093
1782943360890633700,5.8216337890625,-0.0015153493732213974,0.0003644898533821106,0.0008816276676952839
1782943360900618800,5.83161865234375,0.0007019988261163235,0.0013163033872842789,0.0009806971065700054
1782943360910603800,5.841603759765625,-0.0008909921161830425,-0.0012383321300148964,-0.00046877283602952957
1782943360920587800,5.851587890625,0.0000014328397810459137,-0.0008995775133371353,0.0013506989926099777
1782943360930572800,5.86157275390625,-0.0010390076786279678,0.0017749005928635597,0.0012920740991830826
1782943360940557800,5.871557861328125,-0.000983081292361021,-0.0019343504682183266,0.0012952699325978756
1782943360950542600,5.88154248046875,-0.002358850557357073,0.0014248872175812721,0.00159513670951128
1782943360960527600,5.891527587890625,0.0013477371539920568,-0.0007591713219881058,-0.0011886651627719402
1782943360970513000,5.901512939453125,0.0020283206831663847,-0.0007676780223846436,0.0016699694097042084
1782943360980498000,5.911497802734375,0.0011502765119075775,0.0015455437824130058,0.00044598057866096497
1782943360990482700,5.921482666015625,0.0023939975071698427,-0.0009834971278905869,0.0012908242642879486
1782943361000467700,5.9314677734375,-0.000025484245270490646,0.0008455617353320122,0.0015672603622078896
1782943361010451700,5.94145166015625,0.000492872204631567,0.0004918798804283142,0.0003633219748735428
1782943361020436700,5.951436767578125,-0.001627270132303238,-0.00009641237556934357,-0.001335242297500372
1782943361030421800,5.961421875,-0.0015141605399549007,0.0012715011835098267,-0.00021760212257504463
1782943361040406800,5.97140673828125,-0.00009309779852628708,-0.0004941746592521667,-0.00031747110188007355
1782943361050391600,5.9813916015625,-0.0013961023651063442,0.000751301646232605,0.0017115743830800056
1782943361060376600,5.99137646484375,-0.0008964934386312962,0.0018682312220335007,0.0009541711769998074
1782943361070361900,6.00136181640625,-0.001155924517661333,0.00032032839953899384,-0.002932329662144184
1782943361080347000,6.011346923828125,-0.0028073503635823727,0.001579470932483673,0.0019979807548224926
1782943361090332000,6.021331787109375,-0.0014829430729150772,-0.00026200059801340103,0.0011597941629588604
1782943361100316000,6.03131591796875,-0.0005897190421819687,0.00033747684210538864,-0.00031320005655288696
1782943361110300700,6.04130078125,-0.0008766073733568192,0.00005340948700904846,-0.0017203609459102154
1782943361120285700,6.05128564453125,-0.0010720835998654366,0.0006052162498235703,0.000017085112631320953
1782943361130270700,6.061270751953125,-0.0015937271527945995,-0.00012309197336435318,-0.0023740665055811405
1782943361140255700,6.071255859375,-0.0018240907229483128,0.003208521753549576,-0.0009442153386771679
1782943361150240800,6.08124072265625,-0.000003872904926538467,0.002967524342238903,-0.00040986062958836555
1782943361160225800,6.091225830078125,-0.0005186619237065315,-0.0009832754731178284,0.0009976201690733433
1782943361170210800,6.1012109375,-0.00035998597741127014,-0.0007328717038035393,0.0004411144182085991
1782943361180195800,6.11119580078125,0.001704496331512928,0.0006205467507243156,0.0000451025553047657
1782943361190179800,6.121179931640625,-0.002236891072243452,-0.0013080732896924019,0.0033434955403208733
1782943361200164900,6.131164794921875,0.00026488257572054863,0.0014421725645661354,-0.00329629797488451
1782943361210150000,6.14114990234375,0.000009234994649887085,0.0006735697388648987,0.0005855383351445198
1782943361220134700,6.151134765625,-0.00158253638073802,0.0006410786882042885,-0.00007093092426657677
1782943361230119700,6.16111962890625,0.0008668089285492897,-0.0002741413190960884,0.0010902783833444118
1782943361240104700,6.171104736328125,0.0022753546945750713,0.0010965876281261444,-0.0007278616540133953
1782943361250089700,6.18108984375,0.0011797097977250814,0.000916886143386364,0.00040213996544480324
1782943361260074800,6.19107470703125,0.000046002212911844254,-0.0003507779911160469,0.0007566064596176147
1782943361270058800,6.201058837890625,-0.0020212982781231403,0.0005591344088315964,0.0011646738275885582
1782943361280043800,6.211043701171875,-0.0015629678964614868,-0.0005908189341425896,0.002023276872932911
1782943361290028800,6.22102880859375,0.002416023286059499,-0.001129060983657837,-0.0003322470001876354
1782943361300013800,6.231013916015625,0.0010010858532041311,0.0015562037006020546,0.00027149124071002007
1782943361309998800,6.240998779296875,-0.0005455831997096539,0.0030044112354516983,0.0008426085114479065
1782943361319983600,6.250983642578125,0.0016222300473600626,-0.0021224403753876686,-0.0013848589733242989
1782943361329968600,6.26096875,-0.0006844946183264256,-0.0011693015694618225,-0.0007722037844359875
1782943361339953700,6.27095361328125,0.0012462970335036516,-0.00007287785410881042,0.000899462029337883
1782943361349939000,6.28093896484375,0.0003834206145256758,0.00008111074566841125,-0.0021701855584979057
1782943361359922700,6.290922607421875,-0.00018170196563005447,0.000121324323117733,-0.0012916084378957748
1782943361369908000,6.300907958984375,0.003075560089200735,-0.0008615581318736076,-0.0004849168471992016
1782943361379892700,6.310892822265625,-0.0012134606949985027,0.00021355971693992615,0.0016855597496032715
1782943361389877800,6.320877685546875,-0.0013457410968840122,0.0005286224186420441,0.0011748024262487888
1782943361399862800,6.33086279296875,0.0012473787646740675,0.0015025408938527107,0.00009462470188736916
1782943361409847800,6.340847900390625,0.00018849968910217285,0.00036968011409044266,-0.0007143630646169186
1782943361419832800,6.350832763671875,-0.0010850238613784313,-0.00021594855934381485,0.0003093560226261616
1782943361429817600,6.360817626953125,-0.0018355478532612324,0.0028676623478531837,-0.0022840523160994053
1782943361439802600,6.370802734375,0.0004427861422300339,0.0015408750623464584,-0.00003474671393632889
1782943361449786600,6.38078662109375,-0.00011430541053414345,0.00032452214509248734,-0.0004241461865603924
1782943361459772000,6.39077197265625,-0.0023004943504929543,0.00025341566652059555,0.002137281931936741
1782943361469757000,6.4007568359375,0.00004945090040564537,-0.00016959011554718018,0.0008917138911783695
1782943361479741700,6.41074169921875,-0.00027039507403969765,0.0006831539794802666,-0.0019757114350795746
1782943361489726700,6.420726806640625,0.003215054515749216,0.000294489786028862,0.0011356798931956291
1782943361499711700,6.430711669921875,0.0006429736968129873,-0.001330837607383728,0.00034578656777739525
1782943361509696800,6.44069677734375,0.00027377065271139145,-0.00006309244781732559,-0.0022383397445082664
1782943361519677200,6.45067724609375,0.0014213270042091608,-0.0007059797644615173,0.0004037818871438503
1782943361529662200,6.460662109375,0.00195219530723989,0.0027383454144001007,0.0014705341309309006
1782943361539646200,6.470646240234375,-0.00016128923743963242,0.0004357770085334778,-0.0004538656212389469
1782943361549631200,6.48063134765625,-0.0009931805543601513,-0.0005190679803490639,0.0004879026673734188
1782943361559616000,6.490615966796875,0.0005762202199548483,-0.001092446967959404,-0.00024180347099900246
1782943361569601000,6.50060107421875,-0.0002660714089870453,-0.0019771112129092216,0.0007291147485375404
1782943361579586000,6.5105859375,-0.0005156095139682293,-0.0014993399381637573,0.0007253861986100674
1782943361589571300,6.5205712890625,0.0014513258356601,0.0016213739290833473,-0.0013906056992709637
1782943361599556000,6.53055615234375,0.0005437205545604229,0.0007217582315206528,-0.001782356295734644
1782943361609541000,6.540541015625,0.0000766729936003685,-0.001064348965883255,0.00025579193606972694
1782943361619526100,6.550526123046875,0.0014601852744817734,0.0016238456591963768,0.001619064249098301
1782943361629510100,6.56051025390625,0.00007690070196986198,0.0004832688719034195,-0.0035164430737495422
1782943361639495200,6.5704951171875,-0.00027570221573114395,-0.0005612233653664589,-0.0012631425634026527
1782943361649480200,6.580480224609375,0.003009689971804619,0.13714253902435303,0.04783749580383301
1782943361659465000,6.59046484375,-0.002911316230893135,0.10070117563009262,0.026094648987054825
1782943361669450000,6.600449951171875,0.0013276482932269573,-0.14419680833816528,-0.05416436120867729
1782943361679435300,6.610435302734375,-0.0011871745809912682,0.02670223079621792,0.010737674310803413
1782943361689420300,6.620420166015625,0.001102070091292262,-0.06876916438341141,-0.02743394486606121
1782943361699405300,6.6304052734375,0.0032110274769365788,-0.0023035863414406776,-0.0007994058541953564
1782943361709390000,6.64039013671875,0.0004498951602727175,0.0006265640258789062,0.0005258391611278057
