time,seconds_elapsed,z,y,x
1782943335124402400,0.07140234375,-0.0022146902047097683,0.00042392313480377197,0.0007916511967778206
1782943335134387500,0.081387451171875,0.0006346257869154215,-0.000031210482120513916,-0.00014658039435744286
1782943335144372700,0.091372802734375,0.0007297017145901918,-0.00026047974824905396,0.0019778599962592125
1782943335154356500,0.1013564453125,0.0010743148159235716,-0.0014948546886444092,0.001974664628505707
1782943335164341800,0.111341796875,-0.00020080525428056717,-0.0037128375843167305,0.0011562258005142212
1782943335174326800,0.121326904296875,0.0004881545901298523,-0.00013914238661527634,0.0013517020270228386
1782943335184311600,0.1313115234375,0.0025275014340877533,0.0023862970992922783,-0.0014515481889247894
1782943335194296600,0.141296630859375,-0.0023636603727936745,-0.001575421541929245,-0.0009822985157370567
1782943335204281600,0.151281494140625,-0.004036580212414265,-0.0024325447157025337,0.0021935454569756985
1782943335214266600,0.1612666015625,0.002216788474470377,0.0009278319776058197,0.0008499803952872753
1782943335224251400,0.17125146484375,0.0009516878053545952,-0.00018694810569286346,-0.0017467886209487915
1782943335234236400,0.181236328125,0.0005010811146348715,-0.0011486150324344635,0.00018320418894290924
1782943335244220400,0.191220458984375,0.00157758011482656,0.0018625631928443909,0.0013748835772275925
1782943335254205700,0.201205810546875,-0.00015240907669067383,-0.001066381111741066,-0.0015396801754832268
1782943335264190700,0.211190673828125,-0.0023204991593956947,0.0007704189047217369,-0.0010250778868794441
1782943335274175700,0.22117578125,-0.0009692111052572727,-0.0012112390249967575,0.0015597864985466003
1782943335284160500,0.231160400390625,0.00018933136016130447,-0.0019847266376018524,-0.002303833607584238
1782943335294145500,0.2411455078125,-0.0011859247460961342,-0.001013471744954586,-0.0003626556135714054
1782943335304130600,0.251130615234375,-0.0014003287069499493,0.0018741665408015251,-0.0007941247895359993
1782943335314115600,0.261115478515625,0.002419709460809827,-0.00019111484289169312,0.0010546413250267506
1782943335324100600,0.2711005859375,0.0010732978116720915,-0.00047919154167175293,0.002020161598920822
1782943335334084600,0.281084716796875,-0.0006614853627979755,0.0005461256951093674,0.0005471669137477875
1782943335344069400,0.2910693359375,0.0008947479072958231,0.0012352373450994492,0.0013057710602879524
1782943335354054700,0.3010546875,0.0014750505797564983,0.0010016774758696556,-0.0012058564461767673
1782943335364039700,0.311039794921875,0.0005225706845521927,0.0008801035583019257,0.0006399247795343399
1782943335374024700,0.321024658203125,-0.0004529450088739395,0.0005647847428917885,0.00036641815677285194
1782943335384009500,0.331009521484375,0.0004942175000905991,0.0006577549502253532,0.0020959130488336086
1782943335393994500,0.340994384765625,-0.00020725885406136513,0.0011072959750890732,0.0003278404474258423
1782943335403979500,0.3509794921875,0.001992901787161827,0.001725231297314167,0.000834763515740633
1782943335413964500,0.360964599609375,0.0010267070028930902,-0.0033640703186392784,0.001635576132684946
1782943335423948500,0.370948486328125,-0.00014286302030086517,-0.0017480980604887009,0.0020329132676124573
1782943335433933600,0.38093359375,-0.0005420707166194916,-0.0021275989711284637,-0.0023490521125495434
1782943335443918600,0.390918701171875,0.0014525935985147953,-0.0009614471346139908,0.0019422485493123531
1782943335453903600,0.400903564453125,0.00012341002002358437,0.00010461639612913132,-0.00031105196103453636
1782943335463888600,0.410888671875,-0.001247480046004057,-0.0002774316817522049,-0.00040626246482133865
1782943335473873700,0.420873779296875,0.0013959736097604036,-0.0007030051201581955,-0.00020439503714442253
1782943335483858700,0.430858642578125,0.001401522196829319,-0.0017680609598755836,-0.0009598657488822937
1782943335493843500,0.440843505859375,-0.003415603656321764,-0.0009973421692848206,0.0002377573400735855
1782943335503828500,0.450828369140625,-0.0010251933708786964,-0.000010061077773571014,-0.0022234185598790646
1782943335513812500,0.4608125,-0.0000033383257687091827,-0.002083331346511841,-0.00045055197551846504
1782943335523797500,0.470797607421875,0.0008999009151011705,0.000665515661239624,0.001234386581927538
1782943335533782500,0.480782470703125,-0.0006423355080187321,-0.0020522410050034523,0.0009744623675942421
1782943335543767800,0.490767822265625,0.0007822813931852579,-0.00007768068462610245,-0.0022208611480891705
1782943335553752600,0.500752685546875,-0.0023954021744430065,-0.0006928713992238045,0.00007345248013734818
1782943335563737600,0.510737548828125,0.0006448470521718264,-0.0003296509385108948,-0.00003201467916369438
1782943335573722600,0.52072265625,-0.00002653570845723152,-0.0011847922578454018,0.0010353801771998405
1782943335583707600,0.530707763671875,0.0006598860491067171,0.0006696023046970367,-0.0011105886660516262
1782943335593692400,0.5406923828125,0.0011171507649123669,-0.0008942056447267532,0.001470813062041998
1782943335603676700,0.5506767578125,0.0004812323022633791,-0.00300433486700058,0.001357876230031252
1782943335613661400,0.560661376953125,-0.0015784567221999168,0.00003992486745119095,0.002649242989718914
1782943335623646500,0.570646484375,-0.0011372282169759274,0.0008585946634411812,-0.0001496998593211174
1782943335633631700,0.5806318359375,-0.0011718496680259705,0.00019839685410261154,0.0009547127410769463
1782943335643616800,0.59061669921875,-0.0008169389329850674,-0.00020281318575143814,0.00016306666657328606
1782943335653601500,0.6006015625,0.0020419645588845015,-0.00030161626636981964,-0.00011789705604314804
1782943335663586600,0.610586669921875,-0.0014298800379037857,-0.002232915721833706,-0.00152566097676754
1782943335673571600,0.620571533203125,-0.000060482416301965714,0.0006430316716432571,0.0006980779580771923
1782943335683556600,0.630556640625,-0.0002677338197827339,0.0010994747281074524,-0.0002980995923280716
1782943335693540600,0.64054052734375,0.00010084779933094978,-0.0006446288898587227,0.0003237486816942692
1782943335703525600,0.650525634765625,0.0007601755205541849,0.0012476202100515366,-0.00041467417031526566
1782943335713510400,0.660510498046875,-0.00013624457642436028,-0.0005417577922344208,0.0016466123051941395
1782943335723495400,0.670495361328125,0.00016122125089168549,0.0012470874935388565,0.0007227128371596336
1782943335733480700,0.680480712890625,-0.0003722100518643856,0.001635110005736351,0.0005655861459672451
1782943335743465700,0.6904658203125,0.0005556032992899418,0.0019701141864061356,-0.0010348809882998466
1782943335753450800,0.70045068359375,0.0005409559234976768,0.0008625052869319916,-0.0014897491782903671
1782943335763435500,0.710435546875,0.0010156931821256876,0.0006589395925402641,-0.0011964505538344383
1782943335773419500,0.72041943359375,-0.0003198818303644657,0.0003886288031935692,0.0010605789721012115
1782943335783404500,0.730404541015625,-0.000051602721214294434,-0.0016450770199298859,0.00099237821996212
1782943335793389600,0.7403896484375,0.00022030575200915337,0.0019398042932152748,0.002661914099007845
1782943335803374600,0.75037451171875,0.0005287064705044031,0.0009091421961784363,-0.0013324087485671043
1782943335813359600,0.760359619140625,-0.0008920901454985142,-0.0011473512277007103,0.0010404675267636776
1782943335823344600,0.7703447265625,0.002063726307824254,-0.0003699846565723419,-0.0006971489638090134
1782943335833329700,0.78032958984375,-0.00048198923468589783,-0.0010837120935320854,-0.0020226044580340385
1782943335843314700,0.790314697265625,-0.00022135954350233078,0.0007777838036417961,-0.0007973331958055496
1782943335853299700,0.8002998046875,0.0005019549280405045,-0.0003902791067957878,-0.00007082335650920868
1782943335863283700,0.81028369140625,0.0024660606868565083,-0.00023164600133895874,0.002320529893040657
1782943335873268500,0.8202685546875,0.0008372713346034288,0.0017758449539542198,-0.0006022891029715538
1782943335883253500,0.83025341796875,-0.0004516509361565113,-0.0013480735942721367,0.002205034252256155
1782943335893238500,0.840238525390625,0.002090602647513151,0.0009089559316635132,0.000002866610884666443
1782943335903223600,0.8502236328125,0.002395699266344309,-0.002478773705661297,0.0013889763504266739
1782943335913208600,0.86020849609375,-0.00024375971406698227,0.00038838479667901993,-0.0011072047054767609
1782943335923193600,0.870193603515625,0.0027287201955914497,-0.0008854437619447708,-0.00018807360902428627
1782943335933178600,0.8801787109375,0.00013773050159215927,-0.000652683898806572,0.0011064889840781689
1782943335943163600,0.89016357421875,-0.001165828201919794,-0.002708529122173786,0.0007344996556639671
1782943335953147600,0.900147705078125,0.0013362113386392593,-0.0005737394094467163,-0.0009803101420402527
1782943335963132700,0.910132568359375,-0.0007925103418529034,0.0009549865499138832,0.00045191822573542595
1782943335973117700,0.92011767578125,-0.00010062148794531822,-0.00017685722559690475,-0.0005086837336421013
1782943335983102500,0.9301025390625,0.001473966520279646,-0.0004491005092859268,-0.0016963747330009937
1782943335993087500,0.94008740234375,0.001872908091172576,-0.002026490867137909,0.00020565465092658997
1782943336003072500,0.950072509765625,0.0011853924952447414,0.0028201406821608543,0.00008061202242970467
1782943336013057800,0.960057861328125,0.0007478350307792425,-0.0028971340507268906,0.0004963316023349762
1782943336023042600,0.97004248046875,-0.0011988403275609016,0.0008053025230765343,-0.002180207520723343
1782943336033026800,0.98002685546875,-0.0014358614571392536,0.002662857063114643,-0.0030023250728845596
1782943336043011600,0.990011474609375,0.00014857621863484383,0.0018984805792570114,-0.0016212803311645985
1782943336052996600,0.99999658203125,-0.0007739430293440819,0.0008670389652252197,-0.0005381726659834385
1782943336062981600,1.009981689453125,0.0010670376941561699,-0.001435169018805027,-0.00006418861448764801
1782943336072966700,1.019966552734375,0.0006555793806910515,0.00009827874600887299,-0.002006698399782181
1782943336082951400,1.029951416015625,0.001574760302901268,0.0002458794042468071,-0.0004631858319044113
1782943336092936400,1.0399365234375,-0.0009326059371232986,-0.0009251125156879425,-0.0022373832762241364
1782943336102921500,1.04992138671875,-0.0006976528093218803,0.00013195816427469254,-0.0002239239402115345
1782943336112906800,1.05990673828125,0.0014616381376981735,0.001812412403523922,-0.0011776024475693703
1782943336122890800,1.069890869140625,0.0029504592530429363,0.000042304396629333496,-0.0012294459156692028
1782943336132875800,1.079875732421875,-0.000689016655087471,-0.002157732844352722,0.0006667245179414749
1782943336142860500,1.089860595703125,-0.0011051995679736137,-0.001146635040640831,0.0005601677112281322
1782943336152845600,1.099845458984375,-0.000490009319037199,0.0024118805304169655,-0.003044420387595892
1782943336162830600,1.10983056640625,-0.0011806143447756767,-0.0032077832147479057,0.001412976998835802
1782943336172815600,1.119815673828125,-0.0015486632473766804,0.0005062613636255264,0.000867028720676899
1782943336182800600,1.129800537109375,0.0015272656455636024,0.0010747592896223068,0.00145397474989295
1782943336192785400,1.139785400390625,0.00026279687881469727,-0.002191341482102871,-0.0006507211364805698
1782943336202770700,1.149770751953125,0.0005918166134506464,0.00016361381858587265,-0.00018121767789125443
1782943336212754400,1.15975439453125,0.0009433538652956486,0.0002962397411465645,0.0007362412288784981
1782943336222739700,1.16973974609375,0.0000705718994140625,-0.0021809181198477745,-0.00010631140321493149
1782943336232724700,1.179724853515625,0.0005371577572077513,-0.0007995367050170898,-0.0006474652327597141
1782943336242709800,1.189709716796875,-0.0009024138562381268,0.0022406019270420074,0.0006964746862649918
1782943336252694500,1.199694580078125,0.0004885552916675806,-0.0001242849975824356,0.000376096460968256
1782943336262679600,1.209679443359375,-0.0004813121631741524,-0.00026457011699676514,0.0014059585519134998
1782943336272664600,1.21966455078125,-0.0009953021071851254,0.001596447080373764,-0.0007874211296439171
1782943336282649600,1.229649658203125,0.0013833257835358381,0.00009167566895484924,-0.004372131545096636
1782943336292633600,1.239633544921875,-0.0003565172664821148,-0.001064402051270008,-0.0003467644564807415
1782943336302618600,1.24961865234375,0.00022703921422362328,-0.000600447878241539,-0.00033630430698394775
1782943336312603600,1.259603759765625,0.0001988098956644535,-0.0011884737759828568,-0.000041758641600608826
1782943336322588700,1.269588623046875,0.0006270294543355703,-0.0010112952440977097,-0.0012857629917562008
1782943336332573700,1.27957373046875,-0.000778853427618742,-0.0005665477365255356,-0.00038321735337376595
1782943336342558700,1.289558837890625,0.001463466789573431,0.0023935874924063683,0.0015668184496462345
1782943336352543500,1.29954345703125,-0.00003269687294960022,-0.0009337663650512695,0.0005313814617693424
1782943336362528500,1.309528564453125,-0.00040082260966300964,0.0004528248682618141,0.00038338033482432365
1782943336372513500,1.319513427734375,0.0007315534166991711,0.0025660423561930656,-0.0009966697543859482
1782943336382497500,1.32949755859375,0.0006021466106176376,-0.0009078709408640862,-0.0021518166176974773
1782943336392482600,1.339482666015625,-0.0015158653259277344,0.0008245157077908516,-0.0005792197771370411
1782943336402467600,1.349467529296875,-0.0003304467536509037,0.0011898176744580269,-0.002309751231223345
1782943336412452600,1.35945263671875,0.0003811498172581196,0.0004254905506968498,-0.0015219883061945438
1782943336422437600,1.369437744140625,0.0008530367631465197,-0.0009820116683840752,-0.0014739558100700378
1782943336432422700,1.379422607421875,-0.0008045146241784096,-0.0008781477808952332,0.0026187896728515625
1782943336442407700,1.38940771484375,-0.0010137292556464672,0.001635536551475525,0.00036784540861845016
1782943336452392700,1.399392822265625,0.000811335165053606,-0.0010212333872914314,0.00029860297217965126
1782943336462377500,1.40937744140625,0.00016857637092471123,0.0011747106909751892,0.00008583161979913712
1782943336472361500,1.419361572265625,-0.0014495602808892727,0.0003336844965815544,-0.0007767663337290287
1782943336482346500,1.429346435546875,0.00013215001672506332,0.0015888214111328125,0.0014398558996617794
1782943336492330800,1.439330810546875,0.001927919453009963,-0.0012940503656864166,0.004283313173800707
1782943336502315800,1.449315673828125,-0.00025690533220767975,0.0030019963160157204,0.0013819625601172447
1782943336512300800,1.45930078125,0.0004994322080165148,-0.0011602574959397316,-0.00017864955589175224
1782943336522285800,1.469285888671875,-0.0005030049942433834,0.0001665353775024414,-0.002589041832834482
1782943336532270800,1.479270751953125,0.0011098054237663746,0.0004712007939815521,0.0009385808371007442
1782943336542255900,1.489255859375,-0.0002618120051920414,-0.00048697274178266525,0.0013598301447927952
1782943336552239900,1.499239990234375,0.001345405587926507,0.0024550212547183037,0.0004873787984251976
1782943336562225000,1.509224853515625,-0.00006784684956073761,0.0018831463530659676,0.001192682422697544
1782943336572210000,1.5192099609375,-0.0007600025273859501,0.0005592890083789825,-0.00017485115677118301
1782943336582194700,1.529194580078125,0.000783122144639492,0.002026401460170746,0.0014296448789536953
1782943336592179700,1.5391796875,-0.0017631258815526962,0.001968344673514366,0.0021444372832775116
1782943336602164700,1.549164794921875,-0.0005426891148090363,-0.0002493755891919136,-0.0002462388947606087
1782943336612150000,1.55914990234375,0.00016278214752674103,-0.0016219690442085266,0.001200124155730009
1782943336622135000,1.569135009765625,-0.0001326003111898899,0.002040514722466469,-0.0009783641435205936
1782943336632119800,1.579119873046875,0.0014897976070642471,0.00003728456795215607,0.00028024613857269287
1782943336642103800,1.589103759765625,0.0010352330282330513,0.0009821029379963875,0.00035563018172979355
1782943336652088800,1.5990888671875,0.0014056789223104715,0.0021456386893987656,-0.0008816742338240147
1782943336662073900,1.609073974609375,0.0006810317281633615,0.0039060357958078384,-0.0023296508006751537
1782943336672059000,1.619058837890625,0.0024174125865101814,-0.0012607621029019356,-0.0006537227891385555
1782943336682044000,1.6290439453125,0.0013846764340996742,0.0013962797820568085,0.0009650266729295254
1782943336692028700,1.639028564453125,-0.0015514586120843887,-0.00008550286293029785,-0.002139153890311718
1782943336702013700,1.649013671875,0.0009835234377533197,-0.00029649771749973297,0.0015820772387087345
1782943336711999000,1.6589990234375,-0.00019465899094939232,0.0011666426435112953,0.00041481340304017067
1782943336721984000,1.66898388671875,0.0025068079121410847,-0.0023386748507618904,-0.0014409874565899372
1782943336731968000,1.678968017578125,-0.0012839357368648052,-0.002481686882674694,-0.0019302102737128735
1782943336741953000,1.688953125,-0.0020621703006327152,0.0007603168487548828,-0.000924703199416399
1782943336751937800,1.698937744140625,-0.0003521549515426159,-0.00039709359407424927,-0.0002495916560292244
1782943336761922800,1.7089228515625,0.0010196035727858543,-0.0001645255833864212,-0.0008102692663669586
1782943336771907800,1.718907958984375,-0.001290422398597002,-0.00034641940146684647,0.000018506310880184174
1782943336781892900,1.728892822265625,-0.0005178493447601795,-0.0010668132454156876,-0.0002816370688378811
1782943336791877600,1.738877685546875,-0.0013338420540094376,0.00004026293754577637,-0.0014230678789317608
1782943336801863000,1.74886279296875,-0.0008393377065658569,0.00013060308992862701,0.0010490217246115208
1782943336811846700,1.7588466796875,0.000007813796401023865,0.000720759853720665,-0.0026011071167886257
1782943336821832000,1.76883203125,-0.0009848172776401043,-0.0010927794501185417,0.001216354314237833
1782943336831817000,1.77881689453125,0.0011228083167225122,0.00003160722553730011,-0.000032934825867414474
1782943336841802000,1.788802001953125,-0.00007748091593384743,-0.0017174091190099716,-0.0010064486414194107
1782943336851786800,1.798786865234375,0.0008165424223989248,-0.0022029029205441475,-0.00028206873685121536
1782943336861771800,1.808771728515625,-0.0019690957851707935,0.0006014537066221237,-0.0006103659979999065
1782943336871756800,1.8187568359375,-0.00011180713772773743,-0.00030455365777015686,-0.00015736185014247894
1782943336881741800,1.828741943359375,-0.000848900992423296,0.0009168917313218117,-0.0010678893886506557
1782943336891726800,1.838726806640625,0.000906921224668622,-0.0017076535150408745,0.0003816690295934677
1782943336901710800,1.8487109375,-0.00041643716394901276,-0.0001279916614294052,0.001313982531428337
1782943336911696000,1.85869580078125,-0.000561312772333622,0.0010352768003940582,0.0004921313375234604
1782943336921681000,1.868680908203125,-0.0010598753578960896,0.0004823794588446617,0.0021393150091171265
1782943336931666000,1.878666015625,0.00009806733578443527,0.0019356664270162582,0.002271407749503851
1782943336941651000,1.88865087890625,0.00008970638737082481,-0.0008602971211075783,0.0004946705885231495
1782943336951635700,1.8986357421875,0.0009951810352504253,-0.002766321413218975,-0.0035605248995125294
1782943336961620700,1.908620849609375,0.0012628920376300812,-0.0017159292474389076,0.0005411109887063503
1782943336971605800,1.918605712890625,-0.0005698953755199909,0.00011792406439781189,0.003331571351736784
1782943336981590800,1.9285908203125,0.0005246824584901333,-0.0017331261187791824,-0.000882450956851244
1782943336991574800,1.93857470703125,0.001624301541596651,0.0012637292966246605,-0.003857468720525503
1782943337001559800,1.948559814453125,0.0005371959414333105,-0.0018451577052474022,-0.0004166611470282078
1782943337011544800,1.958544921875,-0.00018478697165846825,0.0002765823155641556,0.0007500695064663887
1782943337021529900,1.96852978515625,0.0008002056274563074,-0.0007239039987325668,-0.0003233468160033226
1782943337031515000,1.978514892578125,0.0008569310884922743,-0.0015729200094938278,-0.0012448001652956009
1782943337041500000,1.9885,-0.0001592906191945076,-0.0009060297161340714,-0.001258790958672762
1782943337051485000,1.99848486328125,-0.0012525185011327267,0.000010896474123001099,0.00045761605724692345
1782943337061469700,2.0084697265625,0.00032223574817180634,0.00196225568652153,-0.00032882578670978546
1782943337071453700,2.01845361328125,-0.0008231895044445992,0.00196065753698349,0.0020509748719632626
1782943337081438700,2.028438720703125,0.0017173085361719131,0.001588054932653904,-0.0013007200323045254
1782943337091423700,2.038423828125,0.0004030384588986635,0.0008703330531716347,-0.004212886560708284
1782943337101409000,2.048408935546875,0.0011854555923491716,-0.0011512339115142822,-0.0003276960924267769
1782943337111394000,2.05839404296875,0.0011545629240572453,0.00045944657176733017,-0.0022981693036854267
1782943337121378800,2.06837890625,0.0009483764879405499,0.0009409310296177864,-0.0009950995445251465
1782943337131363800,2.07836376953125,-0.0006412644870579243,-0.0009999806061387062,0.0014555417001247406
1782943337141348900,2.088348876953125,-0.0001756143756210804,0.0009431764483451843,0.0005068527534604073
1782943337151334000,2.098333984375,-0.00026775989681482315,0.0007397113367915154,-0.0015837284736335278
1782943337161318000,2.10831787109375,-0.0007303250022232533,-0.003130502998828888,-0.0005018860101699829
1782943337171303000,2.118302978515625,0.0006001903675496578,-0.0003144768998026848,0.0002464619465172291
1782943337181287700,2.12828759765625,0.0012657830957323313,0.0008467547595500946,-0.0014518494717776775
1782943337191272700,2.138272705078125,-0.0023872749879956245,0.003208979032933712,0.00004857545718550682
1782943337201258000,2.148258056640625,0.0000629005953669548,-0.0010942034423351288,-0.0002357112243771553
1782943337211243000,2.158242919921875,0.0004189654719084501,0.0006160791963338852,-0.001590194646269083
1782943337221227800,2.168227783203125,-0.0026190397329628468,-0.0008053537458181381,-0.001213577575981617
1782943337231212800,2.178212890625,0.0004957932978868484,0.0006588520482182503,0.0016583753749728203
1782943337241197800,2.18819775390625,-0.001579295378178358,-0.0006065545603632927,0.0009895828552544117
1782943337251181800,2.198181884765625,-0.0008727586828172207,-0.0030164485797286034,-0.000004841480404138565
1782943337261166800,2.208166748046875,0.0004537939094007015,-0.0012089386582374573,-0.002135833725333214
1782943337271151900,2.21815185546875,-0.0017086928710341454,0.00018922053277492523,-0.0003275470808148384
1782943337281136600,2.22813671875,0.0008288698736578226,0.002498410642147064,-0.0012814127840101719
1782943337291122000,2.238121826171875,0.00015908479690551758,-0.0018542595207691193,-0.0003732750192284584
1782943337301107000,2.24810693359375,0.000742864329367876,0.002675994299352169,-0.004457974340766668
1782943337311092000,2.258092041015625,0.0004475198220461607,0.0011753030121326447,-0.0009868103079497814
1782943337321077000,2.268076904296875,-0.0009553213603794575,-0.002068372443318367,0.00015013106167316437
1782943337331061000,2.27806103515625,0.0010223421268165112,-0.0017437329515814781,-0.0002578655257821083
1782943337341045800,2.288045654296875,0.0015011196956038475,-0.0007113730534911156,0.0011651916429400444
1782943337351030800,2.29803076171875,-0.00021076016128063202,0.0005014305934309959,0.0004988689906895161
1782943337361015800,2.308015869140625,0.0007887959945946932,0.0004806527867913246,0.0006618988700211048
1782943337371000800,2.318000732421875,0.0012772197369486094,0.0004428355023264885,-0.0011032442562282085
1782943337380985900,2.32798583984375,-0.0007052547298371792,-0.000005624257028102875,-0.0006761616095900536
1782943337390971000,2.337970947265625,0.000717405928298831,-0.0022701099514961243,-0.0001877378672361374
1782943337400956000,2.347955810546875,0.0007943743839859962,0.0004441710188984871,-0.0006103604100644588
1782943337410941000,2.35794091796875,0.00013257889077067375,0.00012672226876020432,-0.00039650918915867805
1782943337420925000,2.367925048828125,0.002264067530632019,-0.0009101759642362595,-0.0011077895760536194
1782943337430910000,2.377909912109375,0.0015135889407247305,0.0028488757088780403,0.0007327208295464516
1782943337440894700,2.387894775390625,-0.0013450533151626587,-0.0008518993854522705,0.0005427701398730278
1782943337450879700,2.397879638671875,-0.00045475875958800316,-0.00005881022661924362,0.0021553141996264458
1782943337460864800,2.40786474609375,-0.00011879624798893929,0.0004924656823277473,0.0005888231098651886
1782943337470849800,2.417849853515625,-0.0006365147419273853,0.0001784786581993103,0.0018836520612239838
1782943337480835000,2.4278349609375,0.0014497966039925814,-0.0026301657781004906,-0.0015813708305358887
1782943337490819800,2.43781982421875,-0.0005129529163241386,0.0008846744894981384,0.0010058898478746414
1782943337500809200,2.447809326171875,-0.0005019791424274445,-0.00009024236351251602,-0.000406583771109581
1782943337510793200,2.457793212890625,-0.00023539690300822258,0.0010756896808743477,-0.0011370889842510223
1782943337520778200,2.4677783203125,0.0011463440023362637,0.000922059640288353,-0.00033612223342061043
1782943337530763300,2.47776318359375,-0.002610577270388603,-0.0004952745512127876,-0.0025840960443019867
1782943337540748000,2.487748046875,0.0009830491617321968,0.002806670032441616,0.0005731401033699512
1782943337550733000,2.497733154296875,0.00013003870844841003,0.00009157694876194,0.0010873968712985516
1782943337560718000,2.507718017578125,-0.0007339417934417725,-0.0005178581923246384,-0.00010793143883347511
1782943337570703000,2.517703125,0.0013273449148982763,0.0011157244443893433,-0.0011686687357723713
1782943337580688100,2.527688232421875,-0.0004627709276974201,-0.0004661688581109047,0.00017111748456954956
1782943337590673200,2.537673095703125,-0.0008782241493463516,0.000031043775379657745,0.00010507088154554367
1782943337600657200,2.5476572265625,0.000001642853021621704,0.00016877427697181702,-0.0011461833491921425
1782943337610642200,2.55764208984375,0.0017854280304163694,-0.0018741367384791374,0.00010843155905604362
1782943337620627200,2.567627197265625,0.0007379462476819754,0.00005799345672130585,-0.0025443565100431442
1782943337630612200,2.5776123046875,-0.0014399867504835129,-0.002637924626469612,-0.004569690674543381
1782943337640597000,2.587596923828125,-0.001654074527323246,-0.0013952264562249184,0.003542328020557761
1782943337650582000,2.59758203125,0.0005369081627577543,-0.0008735135197639465,-0.002404244150966406
1782943337660567000,2.607567138671875,0.0006859733257442713,-0.001414465717971325,-0.0009491941891610622
1782943337670552300,2.61755224609375,-0.00007356004789471626,-0.0018759919330477715,-0.00044026365503668785
1782943337680537300,2.627537353515625,0.002407066524028778,0.002317044883966446,0.0006156153976917267
1782943337690521300,2.637521240234375,0.0008786784019321203,-0.0015309564769268036,-0.00011808564886450768
1782943337700506000,2.647506103515625,0.0018143972847610712,-0.0020074089989066124,0.000921307597309351
1782943337710491100,2.6574912109375,-0.0010234671644866467,-0.00008647143840789795,0.000668840017169714
1782943337720476200,2.66747607421875,-0.00005476502701640129,-0.001901441253721714,-0.00017262576147913933
1782943337730461200,2.677461181640625,-0.0012934012338519096,0.0005771629512310028,-0.0014631934463977814
1782943337740446200,2.6874462890625,-0.0003682519309222698,0.0018644528463482857,0.0028575044125318527
1782943337750431000,2.697430908203125,-0.0015253950841724873,-0.002044801600277424,-0.00034867506474256516
1782943337760416000,2.707416015625,0.00015874626114964485,-0.00029187556356191635,0.0010600043460726738
1782943337770401300,2.7174013671875,-0.0008985288441181183,-0.0016266517341136932,0.0009430916979908943
1782943337780385000,2.727385009765625,-0.0006108982488512993,0.0007246891036629677,0.0011763987131416798
1782943337790370300,2.737370361328125,-0.0015906752087175846,0.0009824829176068306,-0.0011432147584855556
1782943337800355000,2.74735498046875,-0.002031791489571333,-0.0002143094316124916,0.0006611356511712074
1782943337810340000,2.757340087890625,0.0003810327034443617,0.001878403127193451,0.0022374605759978294
1782943337820325000,2.7673251953125,0.0018997762817889452,0.0005305781960487366,0.00033348100259900093
1782943337830310100,2.77731005859375,0.0014193421229720116,0.0006616059690713882,0.00040272343903779984
1782943337840295200,2.787295166015625,-0.0015607676468789577,-0.0006545186042785645,0.001478624064475298
1782943337850280000,2.797280029296875,-0.00042226631194353104,-0.0003192266449332237,0.0016187066212296486
1782943337860264000,2.807263916015625,-0.0007337173447012901,-0.0013199113309383392,-0.0007266523316502571
1782943337870249000,2.8172490234375,0.0003784187138080597,0.0031765708699822426,-0.0006904331967234612
1782943337880234200,2.827234130859375,0.0012784763239324093,0.0004998259246349335,-0.0007530730217695236
1782943337890219300,2.83721923828125,0.0008499736431986094,-0.0024898387491703033,0.0006181886419653893
1782943337900204300,2.847204345703125,0.0013572911266237497,-0.0013776691630482674,-0.00042407913133502007
1782943337910189000,2.85718896484375,0.0020776763558387756,0.0009217038750648499,0.00023292237892746925
1782943337920174000,2.867174072265625,-0.0005868794396519661,-0.0020700395107269287,0.0019409102387726307
1782943337930159000,2.8771591796875,-0.0016220500692725182,0.0004370603710412979,0.00011211726814508438
1782943337940144000,2.88714404296875,-0.0001972448080778122,0.0005400609225034714,0.0015253792516887188
1782943337950128000,2.897128173828125,0.002533826744183898,-0.0014040470123291016,-0.00020088162273168564
1782943337960113200,2.907113037109375,0.00017997389659285545,0.00015536043792963028,0.0012810821644961834
1782943337970098000,2.917097900390625,-0.0006330888718366623,-0.00040390342473983765,0.0004360610619187355
1782943337980083200,2.927083251953125,-0.0001297411508858204,0.002661370672285557,0.00008974550291895866
1782943337990068200,2.937068115234375,0.00112167838960886,0.0002770423889160156,-0.00009188195690512657
1782943338000053200,2.94705322265625,0.004641175735741854,-0.0011622654274106026,0.0003970111720263958
1782943338010038000,2.9570380859375,-0.00011443113908171654,0.0010100752115249634,0.0026838677003979683
1782943338020023000,2.96702294921875,-0.000024019740521907806,0.00029363203793764114,0.0005318941548466682
1782943338030008000,2.977008056640625,-0.0030698771588504314,0.0006821872666478157,0.00063336081802845
1782943338039992000,2.986991943359375,0.00018911389634013176,-0.0011768359690904617,-0.0014267237856984138
1782943338049977000,2.99697705078125,-0.000621552113443613,0.00014249421656131744,0.0025914539583027363
1782943338059962000,3.006962158203125,-0.000060463789850473404,0.001693032681941986,0.0003945198841392994
1782943338069947100,3.016947021484375,0.0011464806739240885,-0.0008582752197980881,-0.001356242224574089
1782943338079932200,3.02693212890625,-0.0015714219771325588,0.00044847559183835983,0.0011845296248793602
1782943338089917200,3.036917236328125,0.0013990681618452072,-8.00006091594696e-7,-0.0013715727254748344
1782943338099902200,3.046902099609375,-0.002444928977638483,0.001750675030052662,-0.0011824057437479496
1782943338109887200,3.05688720703125,-0.0007221298292279243,0.0005149682983756065,0.0002908548340201378
1782943338119872000,3.0668720703125,-0.001229642890393734,-0.000670095905661583,-0.0007254220545291901
1782943338129856000,3.07685595703125,0.0009738567750900984,-0.0009329495951533318,-0.0018234429880976677
1782943338139841000,3.086841064453125,-0.000470056664198637,-0.0007448187097907066,0.000128990039229393
1782943338149826000,3.096825927734375,-0.001553430687636137,0.00009833835065364838,0.0023412778973579407
1782943338159811000,3.10681103515625,-0.002752280328422785,0.0006023971363902092,-0.0000076107680797576904
1782943338169796400,3.11679638671875,0.000499439425766468,-0.001591515727341175,-0.00037299608811736107
1782943338179781000,3.126781005859375,0.0012038955464959145,0.0035790540277957916,0.0015269024297595024
1782943338189766100,3.13676611328125,0.002169291488826275,0.0024962127208709717,-0.0005184048786759377
1782943338199751200,3.146751220703125,0.0010901496279984713,-0.0019116634503006935,0.003261095378547907
1782943338209736200,3.156736083984375,-0.0013836603611707687,0.0015461845323443413,0.0025103501975536346
1782943338219720200,3.16672021484375,-0.0000867936760187149,-0.0014290222898125648,-0.000866202637553215
1782943338229705200,3.176705322265625,-0.00028679706156253815,-0.0002577640116214752,-0.0012409090995788574
1782943338239690000,3.18668994140625,-0.000436530914157629,0.0015753861516714096,0.00018410570919513702
1782943338249675000,3.196675048828125,-0.0013609142042696476,0.0011825691908597946,-0.00029233377426862717
1782943338259660300,3.206660400390625,0.0008624244946986437,-0.0022378647699952126,0.0014886939898133278
1782943338269645300,3.216645263671875,0.0014272809494286776,0.000007978640496730804,0.0026016291230916977
1782943338279630000,3.226630126953125,0.00003477325662970543,0.0000063711777329444885,-0.00002738041803240776
1782943338289615000,3.236614990234375,-0.0007503265514969826,0.0017376923933625221,-0.00017199013382196426
1782943338299600100,3.24660009765625,0.0012648326810449362,-0.001232324168086052,-0.0033747577108442783
1782943338309584100,3.256584228515625,0.0010848029050976038,0.0030383216217160225,-0.00010199891403317451
1782943338319569200,3.266569091796875,-0.00019126571714878082,-0.0009974576532840729,0.0008984101004898548
1782943338329554200,3.27655419921875,-0.00006662961095571518,-0.0008477875962853432,-0.0036060605198144913
1782943338339539000,3.2865390625,-0.0005676327273249626,-0.001223311759531498,-0.0033371062017977238
1782943338349524000,3.29652392578125,0.0002968292683362961,0.00011066533625125885,0.0006131608970463276
1782943338359509200,3.30650927734375,0.0013892091810703278,-0.000516226515173912,-0.0010478473268449306
1782943338369494300,3.316494384765625,-0.0013722223229706287,0.0007029687985777855,0.0003202180378139019
1782943338379479300,3.326479248046875,0.0024123750627040863,-0.0019755419343709946,0.00199556490406394
1782943338389463300,3.33646337890625,0.0019071733113378286,0.0015747183933854103,-0.0020894580520689487
1782943338399448000,3.346447998046875,0.001325155608355999,0.0009723659604787827,-0.00014123646542429924
1782943338409433000,3.35643310546875,-0.0006746118888258934,0.0017350949347019196,0.0005543814040720463
1782943338419418000,3.366418212890625,-0.0026573380455374718,0.00015876349061727524,-0.0022623143158853054
1782943338429403100,3.376403076171875,0.0000034263357520103455,0.00019125454127788544,0.0008735577575862408
1782943338439388200,3.38638818359375,-0.00028838077560067177,0.0018911026418209076,-0.0008705304935574532
1782943338449373200,3.396373291015625,0.0018986070062965155,-0.00200643390417099,0.0015066075138747692
1782943338459358200,3.406358154296875,-0.00037481077015399933,-0.0007063187658786774,-0.00019755680114030838
1782943338469343200,3.41634326171875,-0.0016821566969156265,0.0007991660386323929,-0.001052431296557188
1782943338479328300,3.426328369140625,-0.00009657023474574089,-0.0015421360731124878,-0.0011996366083621979
1782943338489312300,3.436312255859375,-0.0025988761335611343,-0.0007839342579245567,-0.0012297304347157478
1782943338499293400,3.44629345703125,0.00031768111512064934,0.0030713826417922974,-0.00006681354716420174
1782943338509278200,3.4562783203125,0.002551008015871048,0.002573370933532715,0.002397941891103983
1782943338519263200,3.46626318359375,0.00022528134286403656,0.0012884028255939484,-0.0024833078496158123
1782943338529248300,3.476248291015625,0.0006460610311478376,0.0003935806453227997,-0.0018721125088632107
1782943338539233500,3.486233642578125,-0.0005628401413559914,0.002757321111857891,0.002141606528311968
1782943338549218300,3.49621826171875,-0.00004565436393022537,-0.000051247887313365936,0.001498719211667776
1782943338559203300,3.506203369140625,-0.00021609850227832794,0.0004079444333910942,-0.00009648175910115242
1782943338569188400,3.516188232421875,0.0007548897992819548,-0.0009076567366719246,0.0018412340432405472
1782943338579172400,3.52617236328125,0.0003763532731682062,0.0007734391838312149,0.0015582768246531487
1782943338589157400,3.536157470703125,0.002046954119578004,-0.0020226137712597847,0.0008149887435138226
1782943338599142400,3.546142333984375,-0.0008047977462410927,-0.001079336740076542,0.0001605837605893612
1782943338609127200,3.556127197265625,0.00010680267587304115,-0.0027920156717300415,-0.001384582370519638
1782943338619112200,3.5661123046875,-0.0007674507796764374,0.00016019493341445923,0.002493469510227442
1782943338629097500,3.576097412109375,-0.0005671810358762741,0.0019346587359905243,-0.0025311163626611233
1782943338639082500,3.58608251953125,-0.0014229095540940762,-0.0030782558023929596,0.001301642507314682
1782943338649067500,3.596067626953125,-0.00032835034653544426,0.0005859881639480591,-0.0009710993617773056
1782943338659052300,3.60605224609375,0.0007817202713340521,0.000459534116089344,-0.0014162492007017136
1782943338669036300,3.616036376953125,0.0014794685412198305,0.0001506078988313675,0.0011459779925644398
1782943338679021300,3.626021240234375,-0.0014981371350586414,0.0007426561787724495,-0.001403170172125101
1782943338689006300,3.63600634765625,0.001029202714562416,0.0029216548427939415,-0.0007453686557710171
1782943338698991400,3.645991455078125,0.0012612056452780962,-0.0017496738582849503,0.0016675242222845554
1782943338708976400,3.655976318359375,-0.00048795854672789574,0.0014522448182106018,0.0011042654514312744
1782943338718961200,3.665961181640625,0.0023362140636891127,0.0016774022951722145,0.0030863070860505104
1782943338728946400,3.675946533203125,-0.001023896038532257,-0.0016488861292600632,0.001574164256453514
1782943338738931500,3.685931396484375,0.002820349996909499,0.0007023736834526062,0.0012555280700325966
1782943338748916500,3.69591650390625,0.0012299101799726486,0.0014885393902659416,-0.0010627536103129387
1782943338758900500,3.705900390625,0.000814283499494195,-0.0001422688364982605,0.0004991935566067696
1782943338768885200,3.71588525390625,0.0015285431873053312,-0.0006314916536211967,0.0011250362731516361
1782943338778870300,3.725870361328125,0.00136085064150393,0.0015934165567159653,-0.0016819965094327927
1782943338788855300,3.735855224609375,0.0007312793750315905,0.0005249558016657829,-0.0009863786399364471
1782943338798840300,3.74584033203125,-0.0010683489963412285,0.0009057726711034775,0.0022419928573071957
1782943338808825300,3.755825439453125,-0.0011897892691195011,-0.0009642988443374634,0.0015205428935587406
1782943338818810000,3.76581005859375,0.001410187454894185,-0.0008455747738480568,0.0005061309784650803
1782943338828795400,3.77579541015625,-0.001626881305128336,-0.000030114315450191498,0.0005050655454397202
1782943338838780400,3.785780517578125,-0.0014509051106870174,0.0005061635747551918,-0.00039626285433769226
1782943338848764400,3.795764404296875,0.0012961458414793015,-0.0011031841859221458,0.0018136282451450825
1782943338858749400,3.80574951171875,0.0012600410263985395,-0.0008685048669576645,-0.00011823838576674461
1782943338868734500,3.815734375,0.001263502985239029,-0.000912979245185852,-0.0009560692124068737
1782943338878719200,3.82571923828125,-0.00220321211963892,0.00018189195543527603,0.0021384810097515583
1782943338888704300,3.835704345703125,0.002038937294855714,0.0009890962392091751,0.00039171380922198296
1782943338898689300,3.845689208984375,0.001513696275651455,-0.0010019056499004364,-0.0024353470653295517
1782943338908674300,3.85567431640625,0.0000268532894551754,-0.000727066770195961,-0.0006616814061999321
1782943338918659300,3.865659423828125,0.0017432402819395065,-0.0021624332293868065,0.00005439203232526779
1782943338928644400,3.875644287109375,0.0015733307227492332,-0.0012851879000663757,0.0003436114639043808
1782943338938628400,3.88562841796875,-0.0009781508706510067,-0.0013301577419042587,0.002692475914955139
1782943338948613400,3.89561328125,0.0016676997765898705,-0.0011139092966914177,-0.0003190268762409687
1782943338958598400,3.905598388671875,0.0002483115531504154,0.0006079589948058128,-0.0013422556221485138
1782943338968583400,3.91558349609375,-0.0013815429992973804,-0.0006115026772022247,0.0012820232659578323
1782943338978568200,3.925568115234375,-0.001083641778677702,-0.0008143214508891106,-0.0010544368997216225
1782943338988553200,3.93555322265625,-0.0021896525286138058,-0.0011631958186626434,0.0016063274815678596
1782943338998538200,3.945538330078125,0.0003560599870979786,0.002727133221924305,0.0004996955394744873
1782943339008523300,3.955523193359375,0.001963277580216527,-0.000196751207113266,0.00039609847590327263
1782943339018508500,3.965508544921875,0.0018759770318865776,-0.0005626175552606583,0.0004715174436569214
1782943339028492500,3.975492431640625,0.0015540008898824453,-0.00003211572766304016,-0.0001921425573527813
1782943339038477300,3.985477294921875,0.0025946341920644045,0.003926903009414673,-0.0006687575951218605
1782943339048462300,3.99546240234375,0.0006033885292708874,-0.0028577661141753197,-0.000773952342569828
1782943339058444300,4.0054443359375,0.0005179299041628838,0.0013764388859272003,-0.0009388378821313381
1782943339068429300,4.01542919921875,-0.0013177869841456413,0.000056842342019081116,0.0014769155532121658
1782943339078414300,4.025414306640625,-0.0000658007338643074,-0.0011899592354893684,-0.00012591946870088577
1782943339088399400,4.0353994140625,0.0016040012706071138,0.00012857187539339066,0.0000296090729534626
1782943339098383400,4.04538330078125,-0.0004637218080461025,-0.0015805205330252647,-0.00047273188829421997
1782943339108368400,4.055368408203125,-0.0003982079215347767,-0.0031307460740208626,0.0003834743984043598
1782943339118353400,4.065353515625,0.0015056647825986147,0.000653107650578022,-0.0020076101645827293
1782943339128338400,4.07533837890625,0.000628685811534524,0.0009002489969134331,0.002397790551185608
1782943339138323200,4.0853232421875,-0.0022344165481626987,-0.0028545167297124863,-0.00128973089158535
1782943339148308200,4.09530810546875,-0.00006234273314476013,-0.00045021437108516693,-0.0028170542791485786
1782943339158293200,4.105293212890625,-0.00025560706853866577,-0.0008816905319690704,-0.0007797516882419586
1782943339168278500,4.115278564453125,0.001835240749642253,0.0010376498103141785,0.0004849839024245739
1782943339178263600,4.125263671875,0.0011924980208277702,-0.0002082446590065956,0.002688302658498287
1782943339188247600,4.13524755859375,0.00024148309603333473,0.0017161555588245392,-0.0006406484171748161
1782943339198232300,4.145232421875,-0.0005593178793787956,-0.0011112932115793228,-0.0022677998058497906
1782943339208217300,4.15521728515625,0.0006119406316429377,-0.0009365901350975037,-0.0003601773642003536
1782943339218202400,4.165202392578125,-0.000029661692678928375,-0.00032718386501073837,0.00041213585063815117
1782943339228187400,4.1751875,0.00149446539580822,0.00033700931817293167,0.001558627001941204
1782943339238172400,4.18517236328125,0.002476707799360156,-0.003115171566605568,-0.000001601874828338623
1782943339248157200,4.1951572265625,0.015308616682887077,-0.002283998765051365,-0.002030930481851101
1782943339258142200,4.20514208984375,0.1508350670337677,-0.08718522638082504,-0.04436734318733215
1782943339268127500,4.21512744140625,-0.009858205914497375,-0.11930400878190994,-0.03456078842282295
1782943339278111500,4.225111572265625,-0.028143316507339478,0.010258764028549194,0.010357041843235493
1782943339288096500,4.235096435546875,-0.00021900935098528862,0.14219149947166443,0.03143223375082016
1782943339298081300,4.245081298828125,0.0007540136575698853,0.026776067912578583,0.007049413397908211
1782943339308066300,4.25506640625,0.0028571118600666523,-0.01650695875287056,-0.004769429564476013
1782943339318051300,4.26505126953125,-0.0032188422046601772,0.01031035091727972,0.005162687972187996
1782943339328036400,4.275036376953125,-0.0022955243475735188,-0.015764925628900528,-0.000992143526673317
1782943339338021400,4.285021484375,-0.0024272394366562366,0.002777261659502983,0.002786378376185894
1782943339348006100,4.295006103515625,-0.006865929812192917,-0.00997022446244955,-0.0050997743383049965
1782943339357991400,4.304991455078125,-0.0012452504597604275,0.0013575954362750053,0.0006049857474863529
1782943339367976400,4.3149765625,-0.0026042615063488483,-0.0001620035618543625,-0.0002719932235777378
1782943339377960400,4.32496044921875,-0.0015548588708043098,-0.002178788185119629,-0.002175193279981613
1782943339387945500,4.334945556640625,0.0009538386948406696,0.004007202573120594,-0.00028301775455474854
1782943339397930500,4.344930419921875,-0.0013700355775654316,0.001636989414691925,0.0009644068777561188
1782943339407915300,4.354915283203125,-0.0008637686260044575,-0.0018155323341488838,-0.0002835504710674286
1782943339417900300,4.364900390625,-0.0012010443024337292,-0.005264118313789368,-0.0036375802010297775
1782943339427885300,4.37488525390625,0.0005822086241096258,0.0072655221447348595,0.0006144228391349316
1782943339437870300,4.384870361328125,-0.000796616543084383,0.0016647065058350563,0.00040640076622366905
1782943339447855400,4.39485546875,-0.0019135461188852787,0.0016860123723745346,-0.0014314469881355762
1782943339457840400,4.40484033203125,0.00034190108999609947,0.004692837595939636,0.0010771146044135094
1782943339467824400,4.414824462890625,0.00023564090952277184,-0.002789313904941082,-0.0024987119249999523
1782943339477809400,4.424809326171875,-0.0009388132020831108,0.0010834550485014915,0.0008496809750795364
1782943339487794400,4.43479443359375,0.0011946451850235462,-0.000936020165681839,0.001957023050636053
1782943339497783000,4.444782958984375,-0.0012037609703838825,-0.0009651081636548042,0.00039066141471266747
1782943339507767800,4.454767822265625,0.0009203765075653791,0.00026047881692647934,-0.0010959147475659847
1782943339517752800,4.4647529296875,-0.00162193039432168,0.0002689436078071594,-0.0004956121556460857
1782943339527737900,4.47473779296875,-0.001581716351211071,0.0008314037695527077,0.0016253292560577393
1782943339537723100,4.48472314453125,-0.00113997096195817,-0.002948405221104622,-0.00048487912863492966
1782943339547708200,4.494708251953125,-0.00008216360583901405,0.00006975512951612473,-0.0014116596430540085
1782943339557692200,4.504692138671875,0.0026029006112366915,-0.0011859983205795288,0.0019031651318073273
1782943339567677000,4.514677001953125,-0.0003737146034836769,-0.0009622927755117416,-0.0011203219182789326
1782943339577662000,4.524661865234375,0.0011195524130016565,0.00007950048893690109,-0.0016202032566070557
1782943339587647000,4.53464697265625,-0.0010802187025547028,-0.000010248273611068726,0.0034858756698668003
1782943339597632000,4.544632080078125,0.0015662619844079018,-0.0007230481132864952,0.0005722087807953358
1782943339607617000,4.554616943359375,-0.0012817224487662315,0.00014887098222970963,-0.00242677703499794
1782943339617601800,4.564601806640625,0.00036890478804707527,-0.00048096664249897003,0.0006912522949278355
1782943339627587000,4.574587158203125,-0.000003405380994081497,-0.0019220039248466492,0.0023096553049981594
1782943339637572000,4.584572021484375,-0.00024971598759293556,0.00015069637447595596,0.0025541274808347225
1782943339647556000,4.59455615234375,-0.0019107293337583542,-0.0005585029721260071,-0.0007708286866545677
1782943339657541000,4.604541015625,0.0005047654267400503,0.0001864396035671234,-0.000053441617637872696
1782943339667526000,4.61452587890625,-0.0006957873702049255,0.0003907047212123871,0.00039610033854842186
1782943339677511000,4.624510986328125,-0.0026412024162709713,-0.001539117656648159,0.0025874110870063305
1782943339687496000,4.634495849609375,-0.0002462216652929783,-0.0005084741860628128,0.0004299846477806568
1782943339697481000,4.64448095703125,-0.0022481041960418224,-0.00012912508100271225,0.0013121538795530796
1782943339707466000,4.654466064453125,-0.0013649999164044857,0.0007241517305374146,0.0004484904929995537
1782943339717450800,4.66445068359375,0.0005799713544547558,0.001025281846523285,0.0004918877966701984
1782943339727436000,4.67443603515625,0.0018106182105839252,0.0005653537809848785,-0.0004098587669432163
1782943339737421000,4.684421142578125,0.0006765471771359444,0.002878953702747822,0.00028817448765039444
1782943339747405000,4.694405029296875,-0.0020238980650901794,-0.00023827701807022095,-0.00029638921841979027
1782943339757390000,4.70439013671875,0.0005265509244054556,0.0006771581247448921,0.000770101323723793
1782943339767375000,4.714375,-0.0002111447975039482,-0.00012818165123462677,0.0006214971654117107
1782943339777360000,4.72435986328125,0.0024364041164517403,-0.000052102841436862946,-0.0010466761887073517
1782943339787345000,4.734344970703125,0.00026939017698168755,-0.0011567818000912666,-0.00031617097556591034
1782943339797330000,4.744329833984375,-0.0014164228923618793,-0.00008801743388175964,0.0027390131726861
1782943339807315000,4.75431494140625,-0.0022012568078935146,-0.0020773988217115402,-0.0006192326545715332
1782943339817300000,4.764300048828125,0.003053442109376192,-0.0012181494385004044,0.0010094204917550087
1782943339827285000,4.774284912109375,-0.0012456984259188175,0.0002284795045852661,0.0001806444488465786
1782943339837269000,4.78426904296875,-0.0005049090832471848,0.0005979184061288834,-0.00039131660014390945
1782943339847254000,4.79425390625,0.001249314984306693,-0.0014364700764417648,-0.0005564326420426369
1782943339857239000,4.804239013671875,0.00021478720009326935,0.000791795551776886,-0.0024959007278084755
1782943339867224000,4.81422412109375,0.000735169043764472,-0.005071952007710934,0.0009925742633640766
1782943339877208800,4.824208740234375,0.0006825109012424946,-0.0021155932918190956,-0.0014461618848145008
1782943339887193900,4.83419384765625,-0.000009910669177770615,0.0018389346078038216,0.0010577416978776455
1782943339897179000,4.844178955078125,0.00023484183475375175,0.003067510202527046,-0.00091892434284091
1782943339907164000,4.854163818359375,-0.001679970882833004,0.0008943704888224602,-0.00020706141367554665
1782943339917149200,4.864149169921875,0.00047167204320430756,-0.0021142447367310524,-0.0013050315901637077
1782943339927133200,4.87413330078125,0.0012272107414901257,0.004686403088271618,0.0016436204314231873
1782943339937118000,4.884117919921875,0.0014502119738608599,-0.0011795908212661743,-0.002560388296842575
1782943339947103000,4.89410302734375,0.00000597955659031868,-0.0016951784491539001,0.0001051691360771656
1782943339957088000,4.904087890625,-0.0007022600620985031,0.002566201612353325,0.001982050947844982
1782943339967073000,4.914072998046875,-0.0001674974337220192,-0.0008090883493423462,-0.001077920664101839
1782943339977058000,4.92405810546875,0.00011872127652168274,-0.0022067716345191,0.0023543634451925755
1782943339987042800,4.934042724609375,-0.0000354754738509655,-0.00014362111687660217,0.00025179749354720116
1782943339997027800,4.94402783203125,-0.00021484633907675743,-0.0011285338550806046,-0.0002984660677611828
1782943340007013000,4.95401318359375,0.0017265980131924152,0.0020251814275979996,-0.0019477610476315022
1782943340016996900,4.963996826171875,-0.0009492309764027596,0.0006218692287802696,-0.0011333432048559189
1782943340026982100,4.973982177734375,0.000480087473988533,0.0027934107929468155,-0.0008678268641233444
1782943340036967000,4.983966796875,0.0024221769999712706,-0.00014089792966842651,-0.00012483028694987297
1782943340046952000,4.993951904296875,0.0009539762977510691,0.0016412893310189247,-0.0010880953632295132
1782943340056937000,5.00393701171875,-0.0006483611650764942,-0.0018793214112520218,-0.0016631977632641792
1782943340066922000,5.013921875,0.0013748423662036657,-0.0004302952438592911,-0.0007718382403254509
1782943340076907000,5.023906982421875,0.0009964094497263432,-0.0020567532628774643,0.000408779364079237
1782943340086891800,5.033891845703125,-0.0006627398543059826,0.0004002787172794342,-0.0001643327996134758
1782943340096876800,5.043876708984375,-0.000930441077798605,0.0006258729845285416,0.0009184996597468853
1782943340106860800,5.05386083984375,0.0013348434586077929,0.001362503506243229,-0.00040162960067391396
1782943340116846000,5.06384619140625,0.0002201693132519722,-0.0015668105334043503,-0.0013154111802577972
1782943340126831000,5.0738310546875,-0.0016325917094945908,-0.0019428487867116928,-0.0005641337484121323
1782943340136816000,5.083816162109375,0.000691739609465003,0.001643654890358448,-0.0008852230384945869
1782943340146801000,5.09380078125,0.0007724335882812738,-0.0006482619792222977,0.0001139952801167965
1782943340156786000,5.103785888671875,-0.001645894255489111,-0.003128708340227604,-0.000303816981613636
1782943340166771000,5.11377099609375,0.00023296568542718887,-0.00009483564645051956,-0.0017515113577246666
1782943340176756000,5.123755859375,0.0016357125714421272,-0.000831027515232563,-0.00028899870812892914
1782943340186741000,5.133740966796875,0.001545164966955781,0.0031661102548241615,0.0000617392361164093
1782943340196725000,5.14372509765625,0.0008758828043937683,-0.0007054843008518219,0.00012082653120160103
1782943340206709800,5.153709716796875,0.0008380657527595758,-0.0018549049273133278,0.000132810790091753
1782943340216695000,5.163695068359375,0.0005312608554959297,0.0019446015357971191,0.0005293181166052818
1782943340226680000,5.17368017578125,0.002226895419880748,-0.0004474502056837082,-0.0017719189636409283
1782943340236665000,5.1836650390625,0.001402813708409667,0.0009141620248556137,-0.0011438075453042984
1782943340246649900,5.19364990234375,0.0003370167687535286,0.00020682625472545624,0.0008546286262571812
1782943340256635000,5.203634765625,0.0016244060825556517,-0.0005517182871699333,0.0012804670259356499
1782943340266620000,5.213619873046875,0.002328279661014676,0.0007593566551804543,-0.0019874973222613335
1782943340276605000,5.22360498046875,-0.0015416163951158524,0.00009840819984674454,0.0007612705230712891
1782943340286590000,5.23358984375,-0.0006079119630157948,0.0005873646587133408,-0.00010612094774842262
1782943340296574000,5.243573974609375,-0.000781363807618618,0.0002180449664592743,-0.00086162518709898
1782943340306559000,5.25355908203125,0.0006447590421885252,0.0011730538681149483,-0.00027226749807596207
1782943340316544000,5.2635439453125,-0.001124624628573656,-0.0009539667516946793,-0.001399506814777851
1782943340326529000,5.273529052734375,-0.0022751102223992348,0.00021382886916399002,-0.0010455725714564323
1782943340336514000,5.28351416015625,0.0009951076935976744,0.0038697635754942894,-0.00005976436659693718
1782943340346499000,5.2934990234375,0.0016174884513020515,0.0002702344208955765,0.00006487127393484116
1782943340356483800,5.30348388671875,0.0010310136713087559,0.000007254071533679962,0.0003352067433297634
1782943340366468900,5.31346875,-0.000595378689467907,0.0007430855184793472,0.0002627684734761715
1782943340376454000,5.323453857421875,0.0014046626165509224,0.001308203674852848,-0.00011787004768848419
1782943340386438000,5.33343798828125,0.00034845294430851936,0.0022171400487422943,-0.000569541472941637
1782943340396423000,5.3434228515625,0.00010229181498289108,0.0006270045414566994,-0.00011930707842111588
1782943340406408200,5.353408203125,0.0006748712621629238,-0.0003370596095919609,-0.001118258573114872
1782943340416393000,5.36339306640625,-0.0014826334081590176,-0.0005067288875579834,0.00012344541028141975
1782943340426378000,5.3733779296875,0.0003642686642706394,0.0006269793957471848,-0.002483256161212921
1782943340436363000,5.383363037109375,-0.0007018963806331158,0.0007369415834546089,-0.002053325530141592
1782943340446348000,5.39334814453125,-0.0010177469812333584,-0.0010423166677355766,-0.0011646286584436893
1782943340456332800,5.403332763671875,-0.0010814736597239971,-0.002028721384704113,-0.0010634423233568668
1782943340466317800,5.41331787109375,0.0019124522805213928,0.0016001015901565552,-0.0014719716273248196
1782943340476301800,5.4233017578125,0.0021055815741419792,0.0015755174681544304,0.0020052087493240833
1782943340486286800,5.433286865234375,-0.0008294880390167236,-0.0005297111347317696,-0.00002145674079656601
1782943340496272100,5.443272216796875,-0.0007938658818602562,0.0025595510378479958,0.0020634708926081657
1782943340506252500,5.45325244140625,0.000866082264110446,-0.0018051033839583397,0.0006951391696929932
1782943340516237800,5.46323779296875,-0.0005006557330489159,-0.0011146273463964462,-0.002575223334133625
1782943340526222600,5.47322265625,-0.0004460611380636692,-0.0008528381586074829,0.002063736319541931
1782943340536207600,5.48320751953125,-0.00017780065536499023,0.00006738211959600449,0.00026371609419584274
1782943340546192600,5.493192626953125,-0.0022686482407152653,0.00016405433416366577,0.002151098567992449
1782943340556177700,5.503177734375,0.002655495423823595,-0.001221921294927597,-0.0010365843772888184
1782943340566161700,5.51316162109375,0.0004448054824024439,0.00013096444308757782,-0.0004781186580657959
1782943340576146700,5.523146728515625,0.00014945492148399353,-0.0003913240507245064,0.0012961491011083126
1782943340586131500,5.53313134765625,-0.0016665547154843807,0.0007711462676525116,0.0027177445590496063
1782943340596116500,5.543116455078125,-0.0007157637737691402,0.00011417455971240997,-0.000995124690234661
1782943340606101800,5.553101806640625,0.0013298101257532835,0.001149611547589302,-0.0027293749153614044
1782943340616086800,5.563086669921875,-0.0016474071890115738,-0.0009731575846672058,0.0025042425841093063
1782943340626071800,5.57307177734375,0.0026312272530049086,0.00122767873108387,-0.0014601387083530426
1782943340636056600,5.583056640625,0.00008681509643793106,-0.0008153775706887245,-0.0018572411499917507
1782943340646041600,5.59304150390625,0.0001675090752542019,0.0017625615000724792,0.0016019390895962715
1782943340656026600,5.603026611328125,0.0006755089852958918,0.001769724301993847,-0.0009711012244224548
1782943340666010600,5.6130107421875,-0.00027097854763269424,0.0016211196780204773,0.001739464234560728
1782943340675995600,5.62299560546875,0.0021451290231198072,0.0006757397204637527,0.0030942196026444435
1782943340685980700,5.632980712890625,0.0018737528007477522,-0.0010766210034489632,0.0008401200175285339
1782943340695965400,5.64296533203125,-0.001573098823428154,0.00024106819182634354,-0.0007372661493718624
1782943340705950700,5.65295068359375,0.0005105582531541586,0.0015864968299865723,-0.0014009256847202778
1782943340715935700,5.662935791015625,-0.001358838751912117,-0.0003410438075661659,0.0008772662840783596
1782943340725920800,5.672920654296875,0.0002185516059398651,-0.002079022116959095,-0.0001083696261048317
1782943340735905500,5.682905517578125,0.001009095460176468,0.0007394794374704361,-0.0016829455271363258
1782943340745890600,5.692890625,-0.0014833570457994938,0.002648167312145233,-0.00023445254191756248
1782943340755874600,5.70287451171875,-0.0007794038392603397,-0.0023807408288121223,-0.0011786599643528461
1782943340765859600,5.712859619140625,-0.0021908790804445744,-0.0005740523338317871,-0.0005488223396241665
1782943340775844600,5.7228447265625,0.000420987606048584,-0.0016195038333535194,0.00036454852670431137
1782943340785829600,5.73282958984375,0.002280406653881073,0.0008929222822189331,-0.0006354688666760921
1782943340795814700,5.742814697265625,-0.001137790735810995,-0.0005584703758358955,-0.00066427793353796
1782943340805799700,5.752799560546875,-0.0001939665526151657,0.0009816354140639305,-0.0015204846858978271
1782943340815784700,5.76278466796875,0.0008474439382553101,-0.00035087205469608307,-0.0003688456490635872
1782943340825769700,5.772769775390625,0.0013092360459268093,0.0013884380459785461,0.0024570347741246223
1782943340835754800,5.782754638671875,0.0013490361161530018,0.002106853760778904,-0.0010100500658154488
1782943340845738800,5.79273876953125,-0.0031272051855921745,-0.0029550157487392426,-0.0006001889705657959
1782943340855723500,5.8027236328125,0.0008664713241159916,0.001318558119237423,0.0018163630738854408
1782943340865708500,5.81270849609375,0.0005693938583135605,0.0008575683459639549,0.0014711283147335052
1782943340875693600,5.822693603515625,-0.00017783883959054947,-0.0007644053548574448,-0.0008475161157548428
1782943340885678600,5.8326787109375,-0.00016106106340885162,-0.0010807886719703674,0.001302453689277172
1782943340895663600,5.84266357421875,0.00015228567644953728,0.0005663279443979263,0.00043339747935533524
1782943340905648600,5.852648681640625,0.00045535340905189514,0.0006009489297866821,0.0010962584055960178
1782943340915633700,5.862633544921875,0.003282255493104458,0.0002655787393450737,0.0026906034909188747
1782943340925618700,5.87261865234375,0.000060895923525094986,-0.0004031416028738022,-0.0003371443599462509
1782943340935603700,5.882603759765625,0.00019274326041340828,-0.0010617533698678017,-0.000019666273146867752
1782943340945587700,5.892587646484375,0.0001573232002556324,-0.0030519338324666023,0.0011422708630561829
1782943340955572500,5.902572509765625,0.00033860839903354645,0.0012748613953590393,0.0011715497821569443
1782943340965557500,5.9125576171875,0.0007002658676356077,0.00021518953144550323,-0.000781079288572073
1782943340975542500,5.92254248046875,0.000548314768821001,0.0006525041535496712,-0.002264211419969797
1782943340985527600,5.932527587890625,-0.0003989716060459614,0.002731901593506336,-0.0010479460470378399
1782943340995512800,5.942512939453125,-0.00007296493276953697,0.002071239985525608,-0.002663268707692623
1782943341005497600,5.95249755859375,-0.0015190616250038147,-0.0025956835597753525,0.00014716479927301407
1782943341015482600,5.962482666015625,0.00033093011006712914,0.0007189614698290825,0.002328815869987011
1782943341025467600,5.972467529296875,-0.0018802923150360584,0.0009442651644349098,0.0008899103850126266
1782943341035451600,5.98245166015625,-0.0013712942600250244,0.0010476820170879364,0.00019097421318292618
1782943341045436700,5.992436767578125,0.0014471292961388826,-0.0016146805137395859,0.00046661170199513435
1782943341055421700,6.002421630859375,0.0014976323582231998,0.0018301839008927345,-0.0018121586181223392
1782943341065406500,6.012406494140625,0.001167400274425745,-0.0006236527115106583,0.0004805568605661392
1782943341075391500,6.0223916015625,0.002585848793387413,0.0008426494896411896,-0.0015229950658977032
1782943341085376800,6.032376708984375,-0.0002653314732015133,-0.001386682502925396,-0.0006002099253237247
1782943341095361800,6.04236181640625,0.0006950004026293755,0.0012954650446772575,-0.0037433868274092674
1782943341105346600,6.0523466796875,-0.002368433866649866,-0.001572493463754654,-0.0007105786353349686
1782943341115331600,6.06233154296875,0.0005769964773207903,0.001435806043446064,-0.000417312141507864
1782943341125315600,6.072315673828125,0.0004646112211048603,-0.0007897978648543358,0.0015150769613683224
1782943341135300600,6.082300537109375,-0.00009613949805498123,-0.0009705079719424248,-0.00007863948121666908
1782943341145285600,6.09228564453125,0.0005555362440645695,0.001969088800251484,-0.002411568071693182
1782943341155270700,6.102270751953125,0.0006262033712118864,0.0005252165719866753,0.0009685405530035496
1782943341165255400,6.11225537109375,-0.0015842202119529247,-0.0009525716304779053,-0.0015303036198019981
1782943341175240400,6.122240478515625,0.0011546160094439983,0.0017848387360572815,-0.0008079288527369499
1782943341185225700,6.132225830078125,0.0012861762661486864,0.000038071535527706146,-0.0003740997053682804
1782943341195210800,6.142210693359375,-0.0006474601104855537,-0.0018244888633489609,0.001962984912097454
1782943341205195800,6.15219580078125,-0.0004189610481262207,-0.00006174296140670776,0.0009531141258776188
1782943341215180500,6.1621806640625,0.0014838515780866146,-0.0020300475880503654,-0.0013289349153637886
1782943341225164500,6.17216455078125,-0.0002602525055408478,-0.0007844874635338783,-0.0002982914447784424
1782943341235149600,6.182149658203125,0.000010860152542591095,0.00010471604764461517,-0.00146780489012599
1782943341245134600,6.192134521484375,0.002398650161921978,0.0006490666419267654,0.000692018773406744
1782943341255119600,6.20211962890625,-0.0013585942797362804,0.001742243766784668,0.002865901682525873
1782943341265104600,6.212104736328125,-0.00026802998036146164,0.00005592964589595795,0.0004972862079739571
1782943341275089700,6.222089599609375,-0.0007540816441178322,0.002242722548544407,-0.002136070281267166
1782943341285074700,6.23207470703125,-0.0009181322529911995,0.002074677497148514,0.0006416067481040955
1782943341295059700,6.242059814453125,-0.000795501284301281,0.004075218923389912,0.0024382644332945347
1782943341305044700,6.252044677734375,0.0019603376276791096,0.006209476850926876,0.0048380387015640736
1782943341315028700,6.26202880859375,-0.0009578350000083447,0.004817896522581577,0.0024920529685914516
1782943341325013800,6.272013671875,0.0013987964484840631,0.004193917848169804,0.00133837154135108
1782943341334998500,6.28199853515625,-0.0005730735138058662,0.006376717239618301,0.001133487094193697
1782943341344983600,6.291983642578125,-0.0013903975486755371,0.003281591460108757,-0.00036853598430752754
1782943341354968600,6.301968505859375,-0.0026755984872579575,0.0031923968344926834,-0.0012101689353585243
1782943341364953600,6.31195361328125,-0.00048648007214069366,0.0007990142330527306,-0.00043439026921987534
1782943341374938600,6.321938720703125,-0.0011112983338534832,0.000652785412967205,0.0009353477507829666
1782943341384923600,6.331923583984375,0.00011535407975316048,0.0018373597413301468,0.0027769235894083977
1782943341394908700,6.34190869140625,-0.0017951247282326221,0.0030930237844586372,0.0008977171964943409
1782943341404893700,6.351893798828125,-0.0004608812741935253,0.006129027344286442,0.0010327394120395184
1782943341414877700,6.361877685546875,-0.0006800303235650063,0.002473536878824234,0.0021741637028753757
1782943341424862700,6.37186279296875,-0.0005580577999353409,0.007731948047876358,0.0013046418316662312
1782943341434847500,6.381847412109375,0.0004880737978965044,0.003930528648197651,-0.00045894132927060127
1782943341444832500,6.39183251953125,-0.001153765246272087,0.005897806026041508,0.0006662444211542606
1782943341454817500,6.401817626953125,-0.002209379803389311,0.004704157821834087,0.0016855094581842422
1782943341464802800,6.411802734375,-0.0008767340332269669,-0.00012362003326416016,0.0011888300068676472
1782943341474787800,6.421787841796875,0.0012036836706101894,-0.002513560466468334,-0.0016091670840978622
1782943341484772600,6.431772705078125,-0.0005598617717623711,-0.0023689502850174904,-0.0015436531975865364
1782943341494757600,6.441757568359375,-0.0006561726331710815,-0.0022095954045653343,-0.0018741008825600147
1782943341504746000,6.45174609375,0.0016786206979304552,-0.0007262146100401878,-0.002049070317298174
1782943341514731000,6.46173095703125,-0.0013095061294734478,0.0016991617158055305,0.0014209216460585594
1782943341524715800,6.4717158203125,0.0018444755114614964,-0.0029294127598404884,0.0003596520982682705
1782943341534700800,6.48170068359375,-0.0013636862859129906,-0.003698437474668026,-0.0004023406654596329
1782943341544685800,6.491685791015625,-0.0002797800116240978,-0.011255423538386822,-0.003591476008296013
1782943341554670800,6.5016708984375,-0.002076230477541685,-0.016811173409223557,-0.0023172092624008656
1782943341564655900,6.51165576171875,-0.003700226079672575,-0.01032957248389721,-0.004052258562296629
1782943341574640600,6.521640625,0.000048848800361156464,0.011425540782511234,0.0034833471290767193
1782943341584626000,6.5316259765625,0.0014986738096922636,0.000099916011095047,-0.003043261356651783
1782943341594611000,6.54161083984375,-0.0012345192953944206,0.0043039219453930855,0.0014464762061834335
1782943341604595000,6.551594970703125,0.00132664293050766,-0.002262633293867111,-0.00179245974868536
1782943341614580000,6.561580078125,0.00016226014122366905,0.004014464095234871,-0.000005973968654870987
1782943341624565000,6.57156494140625,0.000816066050902009,-0.002055412158370018,-0.0020001488737761974
1782943341634549800,6.5815498046875,0.00018160557374358177,-0.000916442833840847,-0.00003755558282136917
1782943341644534800,6.59153466796875,-0.0012264079414308071,-0.0007899431511759758,0.0005725743249058723
1782943341654519800,6.601519775390625,0.0012260985095053911,0.001506386324763298,0.0009230291470885277
1782943341664504800,6.6115048828125,-0.0003286548890173435,0.000003032386302947998,0.0008242260664701462
1782943341674489900,6.62148974609375,-0.001050347462296486,-0.0005051754415035248,-0.001062481664121151
1782943341684475000,6.631474853515625,-0.0013038800098001957,0.003036029636859894,-0.003049733117222786
1782943341694460000,6.6414599609375,-0.0011745542287826538,-0.002071770839393139,-0.00043898075819015503
1782943341704444000,6.65144384765625,0.00012426916509866714,0.0005141589790582657,-0.0009183492511510849
1782943341714429000,6.661428955078125,0.00021111266687512398,0.0016703223809599876,-0.001125871203839779
1782943341724414000,6.6714140625,-0.0005209902301430702,0.0023422380909323692,-0.0008310591802000999
1782943341734398700,6.681398681640625,-0.0009133624844253063,-0.0025783125311136246,0.0004647844471037388
1782943341744383700,6.6913837890625,-0.002382095903158188,-0.0002062348648905754,0.0008533396758139133
1782943341754368800,6.70136865234375,-0.0002726837992668152,0.0006045270711183548,-0.0003635208122432232
1782943341764353800,6.711353759765625,-0.0009387400932610035,-0.0003925599157810211,-0.000894554890692234
1782943341774339000,6.721339111328125,0.0002104165032505989,0.0006927335634827614,0.0006892718374729156
1782943341784323800,6.73132373046875,0.00003384891897439957,0.0014759693294763565,-0.001257765106856823
1782943341794307800,6.741307861328125,0.0015559247694909573,-0.0016137901693582535,-0.0010783751495182514
1782943341804292900,6.75129296875,-0.00016607530415058136,0.00008264370262622833,0.0011845128610730171
1782943341814278000,6.76127783203125,-0.0012977044098079205,0.0014464464038610458,-0.0014809323474764824
1782943341824263000,6.771262939453125,0.0006370821502059698,0.0006517590954899788,-0.001130460761487484
1782943341834248000,6.781248046875,0.00030206097289919853,0.0007364498451352119,0.0030335457995533943
1782943341844232700,6.791232666015625,0.0020405726972967386,0.0003694659098982811,0.0024119638837873936
1782943341854217700,6.8012177734375,0.0007731628138571978,-0.0011433213949203491,-0.00042842794209718704
1782943341864202800,6.81120263671875,-0.00001353491097688675,0.000826885923743248,-0.0007453439757227898
1782943341874188000,6.82118798828125,0.0006221812218427658,0.0008733542636036873,-0.0009000170975923538
1782943341884172800,6.8311728515625,0.001613676082342863,0.0011303490027785301,-0.002033991739153862
1782943341894157000,6.841156982421875,-0.0000787489116191864,-0.0006690528243780136,0.0008935597725212574
1782943341904141800,6.851141845703125,-0.0004918049089610577,0.0009613344445824623,0.0010530832223594189
1782943341914126800,6.861126953125,0.0002787131816148758,-0.0032080933451652527,0.002294308040291071
1782943341924112000,6.87111181640625,0.0001668604090809822,0.002061770297586918,-0.0015696724876761436
1782943341934097000,6.881096923828125,-0.0015787282027304173,0.0015914933755993843,-0.0003988281823694706
1782943341944081700,6.89108154296875,-0.0002127927727997303,0.0010383548215031624,0.0006342120468616486
1782943341954066700,6.901066650390625,-0.005106617696583271,0.044164255261421204,0.025715328752994537
1782943341964052000,6.911052001953125,-0.0020961803384125233,0.3810884952545166,0.10165776312351227
1782943341974037000,6.921037109375,0.010030421428382397,-0.13439211249351501,-0.0370614156126976
1782943341984022000,6.93102197265625,0.0003338521346449852,-0.08609329164028168,-0.02412164770066738
1782943341994006000,6.941006103515625,-0.002374489326030016,0.0006300350651144981,-0.008107545785605907
1782943342003990800,6.95099072265625,0.0010633855126798153,-0.12570366263389587,-0.04492947459220886
1782943342013975800,6.960975830078125,0.0025704605504870415,-0.02817929908633232,-0.010576227679848671
1782943342023960800,6.9709609375,0.001616782508790493,0.031837962567806244,0.01166143361479044
1782943342033945900,6.98094580078125,0.0019175212364643812,-0.024534638971090317,-0.0051469383761286736
