time,seconds_elapsed,z,y,x
1782943313576810200,0.064810302734375,0.0015464338939636946,0.003934476524591446,0.0010655620135366917
1782943313586795300,0.074795166015625,-0.0006149876862764359,0.0011349618434906006,-0.0004255417734384537
1782943313596780300,0.0847802734375,-0.0005548521876335144,-0.003077751025557518,0.0017317556776106358
1782943313606764300,0.094764404296875,-0.001995089929550886,0.0016363104805350304,0.0007293419912457466
1782943313616749300,0.104749267578125,0.00012266356498003006,0.003153415396809578,-0.002750292420387268
1782943313626734300,0.114734375,-0.0002453853376209736,0.0001962408423423767,-0.0010868823155760765
1782943313636719400,0.12471923828125,0.0021261433139443398,0.0003446582704782486,0.0005240035243332386
1782943313646704400,0.134704345703125,0.0002938886173069477,-0.0018287468701601028,0.0011591673828661442
1782943313656689400,0.144689453125,-0.0007889647968113422,0.0008318498730659485,0.002174313645809889
1782943313666673400,0.15467333984375,0.000058453064411878586,0.002021217718720436,0.0011599157005548477
1782943313676658400,0.164658447265625,0.0010726496111601591,-0.0020141275599598885,0.0024371319450438023
1782943313686643500,0.1746435546875,-0.0004440206103026867,0.0006551584228873253,0.0008091419003903866
1782943313696628200,0.184628173828125,0.0003752929624170065,-0.0009654359892010689,0.0007675713859498501
1782943313706613200,0.19461328125,-0.00009102653712034225,-0.0013984665274620056,-0.00021353736519813538
1782943313716597200,0.20459716796875,0.0018167365342378616,-0.00014563370496034622,-0.0032474705949425697
1782943313726582300,0.214582275390625,-0.0015042251907289028,0.0003923242911696434,-0.0016288012266159058
1782943313736567300,0.2245673828125,-0.002446950413286686,-0.00037867389619350433,0.001555437222123146
1782943313746552600,0.234552490234375,0.0005112891085445881,0.0002671433612704277,-0.0011636503040790558
1782943313756537300,0.244537353515625,0.0011720519978553057,-0.0015380773693323135,-0.0014004399999976158
1782943313766521300,0.254521240234375,-0.0003403574228286743,0.0003674142062664032,0.002609747927635908
1782943313776506400,0.26450634765625,-0.0004202914424240589,0.0008927937597036362,-0.0015489757061004639
1782943313786491400,0.274491455078125,0.000960557721555233,-0.0021980712190270424,0.0004883427172899246
1782943313796476400,0.284476318359375,-0.0007148119620978832,-0.00047000497579574585,0.0010890476405620575
1782943313806461400,0.29446142578125,0.0015107914805412292,-0.00038132257759571075,-0.0009029973298311234
1782943313816446200,0.3044462890625,-0.00020099570974707603,-0.0000059409067034721375,-0.0005687261000275612
1782943313826430200,0.31443017578125,-0.001028706319630146,-0.00005547609180212021,0.0013623321428894997
1782943313836415200,0.324415283203125,-0.0009643393568694592,-0.0011414093896746635,-0.0012844633311033249
1782943313846400300,0.334400146484375,0.002039173850789666,0.000013337470591068268,0.0013158475048840046
1782943313856385500,0.344385498046875,0.00039365654811263084,0.0009804796427488327,-0.0014713741838932037
1782943313866370600,0.35437060546875,-0.0008913185447454453,0.0015868814662098885,-0.0020775096490979195
1782943313876354600,0.3643544921875,0.0014918153174221516,-0.0012455582618713379,-0.00012972392141819
1782943313886339300,0.37433935546875,-0.00028904061764478683,-0.0019832542166113853,0.00015283748507499695
1782943313896324400,0.384324462890625,-0.0008514770306646824,0.0011115232482552528,0.0002220594324171543
1782943313906309400,0.394309326171875,0.001482251100242138,-0.0008640103042125702,0.002417569514364004
1782943313916294400,0.40429443359375,0.0005959428381174803,-0.0002400735393166542,-0.00014920160174369812
1782943313926279400,0.414279541015625,-0.0020080963149666786,-0.0007135840132832527,-0.0012107379734516144
1782943313936263400,0.424263427734375,0.0004869790282100439,-0.002070782706141472,-0.0005242936313152313
1782943313946248200,0.434248291015625,0.000054481904953718185,0.00039770081639289856,0.002398792188614607
1782943313956233200,0.444233154296875,-0.00011982722207903862,-0.0009430656209588051,0.000002178829163312912
1782943313966218500,0.454218505859375,0.0006061503663659096,-0.000984610989689827,0.0001955246552824974
1782943313976203500,0.46420361328125,0.0006844087038189173,0.0028523681685328484,0.0022979695349931717
1782943313986187500,0.4741875,-0.0011758091859519482,-0.0003788452595472336,0.0020891777239739895
1782943313996172500,0.484172607421875,0.0018646682146936655,-0.0020973170176148415,-0.0018066568300127983
1782943314006157300,0.4941572265625,-0.0007566814310848713,-0.0005276491865515709,0.00036275386810302734
1782943314016142300,0.504142333984375,-0.0009816959500312805,-0.0004335222765803337,0.0009174472652375698
1782943314026127400,0.51412744140625,-0.001086091622710228,-0.0007160836830735207,-0.000009599141776561737
1782943314036112400,0.5241123046875,-0.0006127720698714256,-0.0003728410229086876,-0.0003555603325366974
1782943314046096400,0.534096435546875,-0.00105965044349432,-0.0009307730942964554,0.0008907993324100971
1782943314056081400,0.544081298828125,0.0004581483080983162,-0.0007574371993541718,-0.0011782282963395119
1782943314066066200,0.554066162109375,0.0005468314047902822,0.0015792204067111015,-0.0006658369675278664
1782943314076051500,0.564051513671875,-0.001686731819063425,0.0005300715565681458,-0.0009557348676025867
1782943314086036500,0.574036376953125,-0.0009418455883860588,0.0014568520709872246,0.0017055617645382881
1782943314096020500,0.5840205078125,-0.00034882640466094017,-0.0006886376067996025,0.0009254571050405502
1782943314106005500,0.594005615234375,0.0007449337281286716,0.0003081830218434334,0.00028336886316537857
1782943314115990500,0.603990478515625,0.0003031850792467594,0.0011974191293120384,0.00039347726851701736
1782943314125975300,0.613975341796875,0.0013599272351711988,-0.0006457548588514328,0.002323203720152378
1782943314135960300,0.623960205078125,0.0007059583440423012,0.0024248287081718445,-0.0012455778196454048
1782943314145945300,0.6339453125,0.0020796169992536306,0.001899920403957367,-0.0010256003588438034
1782943314155929300,0.643929443359375,0.0016265350859612226,0.002429424785077572,0.0011547519825398922
1782943314165914400,0.653914306640625,0.0010100132785737514,-0.0011597182601690292,-0.00147591857239604
1782943314175899400,0.6638994140625,0.002146917162463069,-0.00023460201919078827,-0.000739049632102251
1782943314185884400,0.673884521484375,0.00032797781750559807,0.00029882974922657013,-0.001014953013509512
1782943314195869400,0.683869384765625,0.0001949113793671131,0.0016942033544182777,-0.00005147978663444519
1782943314205853400,0.693853515625,0.0010500524658709764,-0.000006756745278835297,0.00020152051001787186
1782943314215838500,0.70383837890625,-0.0006544175557792187,0.0008670445531606674,-0.001744322944432497
1782943314225823500,0.713823486328125,-0.0013529644347727299,0.0025829188525676727,-0.0007253973744809628
1782943314235808300,0.723808349609375,0.00013900548219680786,0.0010099923238158226,-0.00016169296577572823
1782943314245793300,0.733793212890625,-0.0003310423344373703,-0.0008148057386279106,0.002970450557768345
1782943314255778300,0.7437783203125,-0.0014171302318572998,-0.0018938630819320679,0.000441091600805521
1782943314265762300,0.75376220703125,-0.0008336314931511879,-0.0012336652725934982,-0.00012056902050971985
1782943314275747300,0.763747314453125,0.001363782910630107,0.000606464222073555,0.0001105661503970623
1782943314285732400,0.773732421875,-0.00012385891750454903,0.00046744663268327713,0.001535357441753149
1782943314295717400,0.78371728515625,0.00007524248212575912,0.00016801711171865463,-0.000777082983404398
1782943314305702400,0.793702392578125,-0.001255006529390812,0.0013477979227900505,0.0005925809964537621
1782943314315686400,0.803686279296875,-0.001222157385200262,-0.0008828090503811836,0.001210059504956007
1782943314325671400,0.81367138671875,0.0023518046364188194,0.0038142073899507523,-0.0002347058616578579
1782943314335656400,0.823656494140625,0.0012489380314946175,0.0011353213340044022,-0.0023570628836750984
1782943314345641500,0.833641357421875,0.0005690332036465406,0.0000889655202627182,0.00019238097593188286
1782943314355626200,0.843626220703125,-0.000015124212950468063,-0.0006718188524246216,0.0016853194683790207
1782943314365611300,0.853611328125,0.0015441563446074724,-0.0010593095794320107,0.0008195261470973492
1782943314375595300,0.86359521484375,-0.0008575925603508949,-0.0018060896545648575,-0.0007226918824017048
1782943314385580300,0.873580322265625,-0.0019761202856898308,-0.006208561360836029,-0.001709925476461649
1782943314395565300,0.8835654296875,0.0014868718571960926,-0.007223100401461124,-0.0015798062086105347
1782943314405550600,0.893550537109375,0.003189696930348873,0.004059647209942341,0.0021827081218361855
1782943314415535400,0.903535400390625,0.004186138045042753,0.016388218849897385,0.008242198266088963
1782943314425519400,0.913519287109375,0.003429001197218895,-0.0006701266393065453,0.000933418981730938
1782943314435504400,0.92350439453125,-0.0003593503497540951,-0.005079548805952072,0.00031591858714818954
1782943314445489400,0.933489501953125,-0.0015223529189825058,0.0050377994775772095,-0.0008343006484210491
1782943314455474400,0.943474365234375,-0.002098469529300928,0.0012063467875123024,-0.0028739990666508675
1782943314465459500,0.95345947265625,0.0018656456377357244,0.005455954000353813,0.0009684101678431034
1782943314475444200,0.9634443359375,0.0015453186351805925,-0.0007938295602798462,-0.0009356210939586163
1782943314485428200,0.97342822265625,-0.00041130557656288147,-0.00014002341777086258,0.0003275158815085888
1782943314495413200,0.983413330078125,0.00034289946779608727,0.0024758148938417435,-0.0028061922639608383
1782943314505398300,0.993398193359375,-0.0008158418349921703,0.0018038991838693619,0.0013384846970438957
1782943314515383600,1.003383544921875,-0.0003570597618818283,0.002249612472951412,0.0023160898126661777
1782943314525368600,1.01336865234375,0.0012432339135557413,-0.0004865191876888275,0.0005594687536358833
1782943314535353300,1.023353271484375,0.003639642149209976,-0.0016494998708367348,-0.001108008436858654
1782943314545337300,1.03333740234375,0.00041135819628834724,0.00199184101074934,0.0041461423970758915
1782943314555322400,1.043322265625,-0.00034490879625082016,0.0008276654407382011,-0.001475831028074026
1782943314565307400,1.053307373046875,0.00005642976611852646,-0.0006927335634827614,0.0015758853405714035
1782943314575292400,1.06329248046875,0.00027148379012942314,-0.0005297074094414711,0.0006171632558107376
1782943314585277400,1.07327734375,0.0028534182347357273,0.003130807541310787,-0.0016683614812791348
1782943314595261400,1.083261474609375,0.0001444825902581215,0.0022963788360357285,0.0008349856361746788
1782943314605246200,1.09324609375,-0.00017243390902876854,0.0007679909467697144,-0.001871052198112011
1782943314615231200,1.103231201171875,0.000861399807035923,-0.000014773570001125336,-0.0012466460466384888
1782943314625216500,1.113216552734375,0.0022070950362831354,0.00011758506298065186,-0.002167566679418087
1782943314635201500,1.123201416015625,-0.00012228498235344887,-0.0004679607227444649,0.0011243061162531376
1782943314645186300,1.133186279296875,0.001118215499445796,0.0014348672702908516,0.00044360244646668434
1782943314655170600,1.143170654296875,-0.0018675201572477818,-0.0005646971985697746,-0.0012661716900765896
1782943314665155300,1.1531552734375,-0.001006253995001316,-0.001025157980620861,0.0014401329681277275
1782943314675140400,1.163140380859375,0.0011280153412371874,0.0007245196029543877,0.00039323559030890465
1782943314685125400,1.17312548828125,0.002121108118444681,0.0027099065482616425,-0.0005945307202637196
1782943314695110400,1.1831103515625,0.00027765799313783646,-0.0015420354902744293,0.002814340405166149
1782943314705095200,1.19309521484375,0.0013136276975274086,-0.00014547351747751236,-0.0017069079913198948
1782943314715079400,1.203079345703125,0.0026084757409989834,-0.0007694307714700699,-0.0001372331753373146
1782943314725064200,1.213064208984375,0.00038633402436971664,-0.0012775622308254242,0.0010119210928678513
1782943314735049500,1.223049560546875,-0.0003333538770675659,-0.0003465227782726288,0.0003487006761133671
1782943314745034500,1.233034423828125,0.0007151328027248383,-0.001020302064716816,-0.00017114868387579918
1782943314755019500,1.24301953125,-0.000702753197401762,0.0007249712944030762,0.0011307252570986748
1782943314765003500,1.25300341796875,0.0015406934544444084,0.0000724969431757927,-0.0005025914870202541
1782943314774988300,1.26298828125,-0.001426544040441513,0.00004383549094200134,0.0003833905793726444
1782943314784973300,1.272973388671875,0.0014360880013555288,-0.000013422220945358276,-0.0017191753722727299
1782943314794958300,1.282958251953125,-0.0002962341532111168,-0.000046975910663604736,0.00022156303748488426
1782943314804943400,1.292943359375,-0.0017623044550418854,-0.00012793578207492828,0.00060239527374506
1782943314814928400,1.302928466796875,0.00030951621010899544,0.0026703672483563423,0.00009350106120109558
1782943314824912400,1.312912353515625,0.0007478722836822271,0.0006759259849786758,0.001846659928560257
1782943314834897200,1.322897216796875,-0.0012086187489330769,0.0014088079333305359,0.0017053307965397835
1782943314844882400,1.33288232421875,-0.0017955792136490345,-0.001790979877114296,0.0000376594252884388
1782943314854867500,1.342867431640625,0.0024035200476646423,-0.0017281901091337204,-0.0008762688376009464
1782943314864852500,1.3528525390625,0.0010828585363924503,0.0015743961557745934,0.0006965943612158298
1782943314874836500,1.36283642578125,0.0002140388824045658,-0.0008879229426383972,0.0021865558810532093
1782943314884821500,1.372821533203125,-0.001123134046792984,0.0003565726801753044,-0.00022919755429029465
1782943314894806300,1.38280615234375,0.0015528437215834856,0.0007130065932869911,0.0019899625331163406
1782943314904791300,1.392791259765625,0.0001898379996418953,-0.0005040578544139862,-0.0017437892965972424
1782943314914776300,1.4027763671875,0.0005186488851904869,0.00009650643914937973,0.0007348228245973587
1782943314924761300,1.41276123046875,-0.0010582087561488152,0.0006528403609991074,0.0010501411743462086
1782943314934745300,1.422745361328125,-0.00004887208342552185,-0.00022536888718605042,0.0006132377311587334
1782943314944730400,1.43273046875,0.001029707957059145,0.001083575189113617,0.0015959441661834717
1782943314954715400,1.44271533203125,0.0010886848904192448,-0.00031077489256858826,0.0006093555130064487
1782943314964700400,1.452700439453125,0.0013587293215095997,0.0028679734095931053,0.00023598037660121918
1782943314974685400,1.462685546875,-0.00013290578499436378,-0.001086466945707798,0.0007636644877493382
1782943314984669400,1.47266943359375,-0.0001728530041873455,-0.00034344475716352463,-0.0011594044044613838
1782943314994654500,1.482654541015625,0.00043116207234561443,-0.0004071192815899849,0.0014951471239328384
1782943315004639500,1.492639404296875,-0.0009877700358629227,0.0008102115243673325,0.0012362878769636154
1782943315014624300,1.502624267578125,0.002170376945286989,-0.0004450073465704918,0.0007702996954321861
1782943315024609300,1.512609375,0.00028485897928476334,0.0006295777857303619,0.0033045639283955097
1782943315034594300,1.52259423828125,-0.0013062083162367344,-0.000837334431707859,-0.00029758457094430923
1782943315044578300,1.532578369140625,0.0026813424192368984,-0.00026022735983133316,0.002322699874639511
1782943315054563300,1.542563232421875,0.00016746623441576958,-0.0007736310362815857,0.0005934666842222214
1782943315064548600,1.552548583984375,-0.00046317046508193016,0.001100168563425541,-0.0010220068506896496
1782943315074533400,1.562533447265625,-0.0003494173288345337,0.0012122131884098053,-0.0007099197246134281
1782943315084518400,1.572518310546875,-0.00029402365908026695,0.0018500396981835365,0.0003148643299937248
1782943315094503400,1.58250341796875,-0.0005331882275640965,-0.00010482687503099442,-0.0023210993967950344
1782943315104487400,1.5924873046875,-0.0004194709472358227,-0.001084071584045887,0.0014845579862594604
1782943315114472400,1.602472412109375,-0.0014750808477401733,0.0006226003170013428,0.001083828043192625
1782943315124457500,1.61245751953125,0.0011776939500123262,0.00012538861483335495,0.0009746383875608444
1782943315134442200,1.622442138671875,-0.00032894406467676163,-0.0004249662160873413,0.0008790725842118263
1782943315144427300,1.63242724609375,-0.00024665240198373795,-0.000279291532933712,0.001719299703836441
1782943315154412300,1.642412353515625,0.0008341623470187187,0.0005193334072828293,0.0011207927018404007
1782943315164396300,1.652396240234375,-0.0007767840288579464,-0.0021323757246136665,0.0012235906906425953
1782943315174381300,1.66238134765625,-0.0019943336956202984,0.0014340318739414215,0.00026029208675026894
1782943315184366600,1.67236669921875,-0.000028920825570821762,0.00002601929008960724,0.001599862240254879
1782943315194351400,1.682351318359375,-0.0006277179345488548,0.00017125532031059265,0.0010641049593687057
1782943315204336400,1.69233642578125,0.0009728418663144112,0.000372057780623436,0.00031282706186175346
1782943315214320400,1.7023203125,0.0016684948932379484,-0.0004439186304807663,-0.0012020268477499485
1782943315224305400,1.712305419921875,-0.002634374424815178,0.0005465103313326836,-0.0002914923243224621
1782943315234290400,1.72229052734375,0.00014806538820266724,-0.001042165793478489,-0.0016538845375180244
1782943315244275500,1.732275390625,0.0007763050962239504,0.00002283230423927307,0.0021352609619498253
1782943315254260200,1.74226025390625,-0.00038025015965104103,0.00018743425607681274,-0.001006517093628645
1782943315264245200,1.752245361328125,0.0011966077145189047,0.0004934314638376236,-0.0006869384087622166
1782943315274229200,1.762229248046875,-0.00044522760435938835,0.0009049056097865105,-0.0008403230458498001
1782943315284214300,1.77221435546875,0.0020717261359095573,-0.00027727149426937103,-0.001994270831346512
1782943315294199600,1.782199462890625,0.0019268500618636608,-0.0005377279594540596,-0.0005550980567932129
1782943315304184300,1.792184326171875,-0.0011593028903007507,0.001407679170370102,0.0015904842875897884
1782943315314169300,1.80216943359375,0.0008221017196774483,-0.001907377503812313,0.0002927458845078945
1782943315324154400,1.812154296875,0.0002409997396171093,0.0001789424568414688,0.0005452134646475315
1782943315334138400,1.822138427734375,0.002920748433098197,0.0013835355639457703,0.0012549366801977158
1782943315344123400,1.832123291015625,0.0009420197457075119,0.000505225732922554,-0.0021187560632824898
1782943315354108400,1.8421083984375,-0.001931014470756054,-0.0002029845491051674,0.0024365372955799103
1782943315364093200,1.85209326171875,-0.00003111502155661583,-0.0003417357802391052,-0.0005081198178231716
1782943315374078200,1.862078125,-0.0005041086114943027,0.0014324933290481567,-0.0017810845747590065
1782943315384063500,1.8720634765625,0.000019202474504709244,-0.00007458869367837906,-0.00000741938129067421
1782943315394047200,1.882047119140625,-0.00020875083282589912,-0.001977209933102131,0.0016974634490907192
1782943315404032500,1.892032470703125,-0.00030142907053232193,0.0007125828415155411,0.0009326036088168621
1782943315414017500,1.902017578125,-0.00015707919374108315,0.0008084885776042938,-0.0001020706258714199
1782943315424002300,1.912002197265625,-0.0017893309704959393,0.0013749431818723679,0.0024982397444546223
1782943315433987300,1.9219873046875,0.00250934693031013,-0.0007303496822714806,0.0010209493339061737
1782943315443971300,1.931971435546875,0.003210823517292738,-0.0001250132918357849,0.0012515787966549397
1782943315453956400,1.941956298828125,-0.0023460304364562035,0.0006979396566748619,0.0004751761443912983
1782943315463941400,1.95194140625,0.001379731809720397,0.000570906326174736,-0.0012199264019727707
1782943315473923300,1.96192333984375,0.0012890587095171213,-0.0016553113237023354,-0.0005306615494191647
1782943315483908000,1.971908203125,-0.0007879408076405525,-0.002910459414124489,-0.00074398098513484
1782943315493893000,1.98189306640625,0.0018344041891396046,0.0027420558035373688,-0.000780180562287569
1782943315503877000,1.991877197265625,0.00014409609138965607,0.0009417599067091942,0.0014864364638924599
1782943315513862100,2.001862060546875,-0.001589945051819086,-0.0016427217051386833,0.0006033843383193016
1782943315523847200,2.01184716796875,-0.0017976714298129082,-0.0009782630950212479,0.0016084611415863037
1782943315533832200,2.021832275390625,0.0001811920665204525,-0.0008112620562314987,0.0009740316309034824
1782943315543817000,2.03181689453125,0.0021300932858139277,-0.0017284546047449112,-0.0015391940250992775
1782943315553802000,2.041802001953125,0.00028458330780267715,0.00017180293798446655,0.0016106842085719109
1782943315563786000,2.051785888671875,-0.0014874842017889023,-0.0013110451400279999,-0.0005147848278284073
1782943315573771300,2.061771240234375,-0.0006002830341458321,0.00020836293697357178,0.0008001127280294895
1782943315583756300,2.07175634765625,-0.0016602212563157082,0.0008339397609233856,-0.00013439077883958817
1782943315593741000,2.081740966796875,-0.00210759649053216,0.00008185487240552902,0.0009893151000142097
1782943315603726000,2.09172607421875,-0.0003816019743680954,0.00021554529666900635,0.00035681435838341713
1782943315613711000,2.101711181640625,0.0023597669787704945,0.0005790423601865768,0.0010040542110800743
1782943315623695000,2.111695068359375,0.002411965047940612,0.0017455071210861206,-0.0016330084763467312
1782943315633680100,2.12168017578125,0.0006496948190033436,-0.0010715145617723465,0.00008819065988063812
1782943315643665200,2.1316650390625,0.00019642477855086327,0.00048750080168247223,0.0006573079153895378
1782943315653650000,2.14164990234375,-0.00029559526592493057,0.0013746237382292747,0.0005379696376621723
1782943315663635000,2.151635009765625,0.0023012529127299786,-0.0005388576537370682,-0.0007565929554402828
1782943315673620200,2.1616201171875,-0.000471409410238266,0.0017502866685390472,-0.0017492566257715225
1782943315683604200,2.171604248046875,0.00018292944878339767,0.0006535975262522697,0.0013778270222246647
1782943315693589200,2.18158935546875,0.0022391644306480885,-0.0003501037135720253,0.0021786014549434185
1782943315703574300,2.19157421875,-0.00042639346793293953,-0.001985817216336727,0.002558634616434574
1782943315713559000,2.20155908203125,-0.0007761428132653236,-0.0008220169693231583,0.0010756142437458038
1782943315723544000,2.2115439453125,0.0007096345070749521,-0.0007354635745286942,-0.0012099100276827812
1782943315733529000,2.221529052734375,0.0009071016684174538,-0.0007668798789381981,-0.0022026002407073975
1782943315743513000,2.23151318359375,0.0007209465838968754,-0.00132081750780344,-0.0007168222218751907
1782943315753498000,2.241498046875,-0.0015106331557035446,-0.003182530403137207,0.0009345994330942631
1782943315763483100,2.251483154296875,-0.0014216834679245949,0.0006827814504504204,-0.0002451809123158455
1782943315773468000,2.261468017578125,-0.0005692061968147755,0.0001641334965825081,0.0015084883198142052
1782943315783453200,2.271453125,-0.0018778834491968155,0.0012368550524115562,0.0005196565762162209
1782943315793438200,2.281438232421875,-0.0004170299507677555,0.0003183651715517044,0.0014744172804057598
1782943315803422200,2.291422119140625,0.0007568916771560907,0.0013833632692694664,-0.0038636229000985622
1782943315813407200,2.3014072265625,-0.002400506753474474,-0.0009207632392644882,0.0014812136068940163
1782943315823392300,2.311392333984375,0.0001313602551817894,-0.0017631212249398232,0.0019185049459338188
1782943315833377000,2.321376953125,0.0013105126563459635,-0.0011918479576706886,-0.00023822998628020287
1782943315843362000,2.331362060546875,-0.0019212332554161549,0.0012233732268214226,-0.0009892415255308151
1782943315853347000,2.34134716796875,0.00350942206569016,0.001957731321454048,0.00017299503087997437
1782943315863331000,2.3513310546875,0.0002838012296706438,0.00028686411678791046,0.00010668206959962845
1782943315873316000,2.361316162109375,0.0008593879174441099,-0.0006495863199234009,-0.0011229380033910275
1782943315883301000,2.371301025390625,0.00019439635798335075,-0.00082375667989254,-0.0006640753708779812
1782943315893286100,2.3812861328125,0.0002846834249794483,0.0003455299884080887,-0.0015360070392489433
1782943315903271200,2.391271240234375,-0.000423983670771122,-0.00019828788936138153,0.00005150306969881058
1782943315913256200,2.401256103515625,0.00018500536680221558,-0.0004763808101415634,-0.001543066930025816
1782943315923240200,2.411240234375,-0.0006893104873597622,0.0013622650876641273,0.0014298204332590103
1782943315933225200,2.42122509765625,0.0003468634095042944,0.0023327935487031937,-0.0012778658419847488
1782943315943210200,2.431210205078125,0.0011985423043370247,0.0002691103145480156,0.00013760384172201157
1782943315953195000,2.441195068359375,0.000480834161862731,0.0018444927409291267,-0.0011264132335782051
1782943315963180000,2.451179931640625,0.001125851646065712,0.00041996780782938004,-0.00006088288500905037
1782943315973165000,2.4611650390625,-0.0008493363857269287,0.001879722811281681,-0.00017627933993935585
1782943315983149000,2.471149169921875,-0.0007963394746184349,0.0003883522003889084,0.0012378590181469917
1782943315993134000,2.481134033203125,0.001106433803215623,0.00002022460103034973,-0.0018454883247613907
1782943316003119000,2.491119140625,-0.00200174143537879,0.00028920359909534454,0.0015391232445836067
1782943316013104000,2.501104248046875,0.0008340103086084127,-0.00024457182735204697,0.0029783211648464203
1782943316023089200,2.511089111328125,0.001956266351044178,0.0005828728899359703,0.0004003811627626419
1782943316033074200,2.52107421875,-0.00016666483134031296,-0.00011603441089391708,0.0014767767861485481
1782943316043058200,2.53105810546875,0.00248291390016675,-0.00014905817806720734,0.00048022158443927765
1782943316053043200,2.541043212890625,-0.0025285505689680576,0.0006602201610803604,-0.0005922229029238224
1782943316063028200,2.5510283203125,0.0005015942733734846,-0.0013113180175423622,0.0008376287296414375
1782943316073013000,2.561012939453125,-0.0018586553633213043,0.0001253560185432434,-0.0013559195213019848
1782943316082998000,2.570998046875,0.003561942605301738,-0.0008440343663096428,-0.0007809433154761791
1782943316092983000,2.580983154296875,0.0014743919018656015,-0.0017404360696673393,0.0021293223835527897
1782943316102967000,2.590967041015625,-0.00028036488220095634,0.00011578761041164398,0.001284035388380289
1782943316112952300,2.600952392578125,-0.0009712083265185356,-0.00025655608624219894,-0.0008551585488021374
1782943316122937000,2.61093701171875,-0.00005215173587203026,0.0015429416671395302,0.00044712750241160393
1782943316132922000,2.620922119140625,-0.0008274661377072334,0.0007841093465685844,0.0023444280959665775
1782943316142907100,2.6309072265625,-0.0009971093386411667,-0.0009299013763666153,0.0001622335985302925
1782943316152892200,2.64089208984375,0.0003579976037144661,0.0017651142552495003,-0.0026494977064430714
1782943316162876200,2.650876220703125,0.0012245902325958014,-0.002154259942471981,0.002034469973295927
1782943316172861200,2.660861083984375,0.0001668594777584076,0.0004867576062679291,0.0008415249176323414
1782943316182846000,2.670845947265625,-0.001220114529132843,-0.0018943743780255318,0.00013738498091697693
1782943316192831000,2.6808310546875,-0.0007362444885075092,0.0008092056959867477,0.0007511181756854057
1782943316202816000,2.69081591796875,0.0001857415772974491,-0.001016656868159771,-0.000018002931028604507
1782943316212801300,2.70080126953125,0.0005717936437577009,-0.0010020937770605087,0.00021079694852232933
1782943316222785300,2.710785400390625,0.00004795007407665253,0.004856594838202,0.0003562052734196186
1782943316232770300,2.720770263671875,-0.00012241024523973465,0.0018457099795341492,0.00047439010813832283
1782943316242755000,2.730755126953125,0.0023711074609309435,-0.00046378280967473984,-0.00048141786828637123
1782943316252740000,2.740739990234375,-0.0010710638016462326,0.0019781459122896194,0.0013013435527682304
1782943316262725000,2.75072509765625,-0.0015602866187691689,0.0023392708972096443,0.0013452856801450253
1782943316272710100,2.760710205078125,-0.0004064212553203106,0.002793850377202034,-0.00025334861129522324
1782943316282694100,2.770694091796875,0.0009054518304765224,0.0012319069355726242,0.0007330859079957008
1782943316292679200,2.78067919921875,0.0002849595621228218,-0.0007798215374350548,-0.0029562865383923054
1782943316302664000,2.790663818359375,-0.001569931861013174,0.002511313185095787,0.00030448753386735916
1782943316312649000,2.80064892578125,0.00022732792422175407,0.0008565736934542656,0.00015934789553284645
1782943316322634200,2.81063427734375,-0.0012906738556921482,-0.00009657163172960281,-0.0012481329031288624
1782943316332619300,2.820619384765625,0.00020963698625564575,-0.0017978297546505928,0.0013250983320176601
1782943316342603300,2.830603271484375,0.0005862079560756683,-0.000834297388792038,0.000845995731651783
1782943316352588300,2.84058837890625,0.0019834849517792463,0.002842674031853676,-0.0014523477293550968
1782943316362573000,2.850572998046875,0.00021354807540774345,-0.00019359588623046875,-0.0018821819685399532
1782943316372558000,2.86055810546875,-0.0003082980401813984,0.0014454824849963188,-0.001325816847383976
1782943316382543000,2.870543212890625,0.0008339318446815014,0.0026910435408353806,0.0021855607628822327
1782943316392528100,2.880528076171875,0.00035920366644859314,-0.00011375267058610916,-0.00232923636212945
1782943316402513200,2.89051318359375,0.0006225903052836657,-0.000529472716152668,-0.00024078553542494774
1782943316412497200,2.9004970703125,0.0006066311616450548,0.00018816161900758743,-0.00156823405995965
1782943316422482000,2.91048193359375,0.0005909185856580734,-0.0003338176757097244,-0.0020539951510727406
1782943316432467200,2.92046728515625,0.00013603875413537025,0.0013165008276700974,-0.0019506029784679413
1782943316442452200,2.9304521484375,0.0013855940196663141,0.0012720264494419098,-0.002022508531808853
1782943316452437200,2.940437255859375,0.0000023497268557548523,0.0004375763237476349,0.0000257762148976326
1782943316462422000,2.950422119140625,-0.001651473343372345,0.0010924478992819786,0.000004204455763101578
1782943316472406300,2.96040625,0.00047789327800273895,0.0015143239870667458,-0.002109750173985958
1782943316482390500,2.970390625,0.00011650240048766136,-0.0017653582617640495,-0.0015880372375249863
1782943316492375600,2.98037548828125,0.0011820562649518251,0.000507088378071785,-0.0007742489688098431
1782943316502360600,2.990360595703125,0.0013985713012516499,0.0014887293800711632,-0.0013407026417553425
1782943316512345600,3.000345703125,-0.000630729366093874,0.00032329652458429337,-0.0009203911758959293
1782943316522330600,3.01033056640625,0.002517393324524164,0.0016322406008839607,-0.0027156281284987926
1782943316532314600,3.020314697265625,0.0002902294509112835,-0.00003103818744421005,-0.0007149656303226948
1782943316542299400,3.03029931640625,0.0007142047397792339,-0.0004725903272628784,0.0016555143520236015
1782943316552284400,3.040284423828125,0.002588376635685563,0.0009296732023358345,0.001354774460196495
1782943316562269400,3.05026953125,-0.00044389860704541206,0.0021757660433650017,-0.0023321062326431274
1782943316572254700,3.060254638671875,-0.0005399198271334171,0.0008138557896018028,-0.0004940046928822994
1782943316582239700,3.07023974609375,0.0007517135236412287,0.00048735179007053375,0.0010921740904450417
1782943316592223700,3.0802236328125,0.0010869428515434265,0.002224130555987358,0.0005195471458137035
1782943316602208500,3.09020849609375,-0.00008378271013498306,0.0007966756820678711,-0.0010732896625995636
1782943316612193500,3.100193603515625,0.0005387009587138891,-0.001704077236354351,-0.0016198274679481983
1782943316622178600,3.110178466796875,0.0012526942882686853,0.0010682735592126846,-0.0011953194625675678
1782943316632163600,3.12016357421875,-0.0016143224202096462,0.000572635792195797,0.0017787674441933632
1782943316642148600,3.130148681640625,-0.0007639750838279724,0.0012272410094738007,-0.002310249488800764
1782943316652132600,3.140132568359375,-0.0005670827813446522,0.0006541581824421883,0.0010525910183787346
1782943316662117400,3.150117431640625,-0.00023871520534157753,0.0006861165165901184,-0.00027046771720051765
1782943316672102400,3.160102294921875,0.000779114430770278,-0.0003450028598308563,-0.0012811380438506603
1782943316682087400,3.17008740234375,-0.000376697164028883,0.0015157479792833328,0.0005266154184937477
1782943316692072700,3.18007275390625,0.0023684436455368996,-0.0014326777309179306,-0.001554485410451889
1782943316702057700,3.1900576171875,0.0008214134722948074,-0.0012555774301290512,0.0019108196720480919
1782943316712042500,3.20004248046875,0.0002724612131714821,0.0015338361263275146,-0.0009771776385605335
1782943316722026500,3.210026611328125,-0.0005089100450277328,0.002298695035278797,0.001868942752480507
1782943316732011500,3.220011474609375,-0.0000014263205230236053,-0.002143080346286297,0.0016531981527805328
1782943316741996500,3.22999658203125,0.001197262667119503,0.0008385945111513138,0.00009445007890462875
1782943316751981600,3.239981689453125,-0.0022449144162237644,0.002508164383471012,-0.0007658228278160095
1782943316761966600,3.249966552734375,-0.00004248041659593582,0.00024208053946495056,0.002044611144810915
1782943316771951400,3.259951416015625,0.0003819649573415518,-0.0008062561973929405,0.0016028634272515774
1782943316781935400,3.269935302734375,0.0004914209712296724,0.0021501192823052406,0.0009679659269750118
1782943316791920400,3.27992041015625,-0.00044151442125439644,0.0007511069998145103,-0.0005268435925245285
1782943316801905700,3.28990576171875,-0.0036279866471886635,-0.001862785778939724,-0.0006671920418739319
1782943316811890700,3.299890625,0.0002255011349916458,0.0030647674575448036,-0.0006399932317435741
1782943316821875500,3.30987548828125,-0.00033695856109261513,0.0006189197301864624,0.0022396831773221493
1782943316831860500,3.319860595703125,-0.0010752943344414234,-0.0017135022208094597,-0.0015959488227963448
1782943316841844500,3.329844482421875,0.0006863868329674006,0.0000966489315032959,-0.0024502910673618317
1782943316851829500,3.33982958984375,-0.00019794050604104996,0.001442890614271164,-0.0007030107080936432
1782943316861814500,3.349814453125,0.0005264393985271454,-0.0018234765157103539,0.000731899868696928
1782943316871799600,3.359799560546875,-0.002184536773711443,-0.0002527739852666855,-0.00013036513701081276
1782943316881784300,3.369784423828125,0.0008322922512888908,0.002715318463742733,-0.003727496601641178
1782943316891769600,3.37976953125,0.0017539581749588251,-0.0003377934917807579,0.0008398671634495258
1782943316901754600,3.389754638671875,0.00020346557721495628,0.0005450444296002388,0.0006747511215507984
1782943316911738600,3.399738525390625,-0.001328419428318739,-0.001771547831594944,-0.000349387526512146
1782943316921723600,3.4097236328125,-0.002098072785884142,-0.002131872810423374,0.00010814331471920013
1782943316931708700,3.419708740234375,0.0004456927999854088,0.0020706672221422195,-0.002485714852809906
1782943316941693400,3.429693359375,0.0011314568109810352,-0.0013304557651281357,-0.0010316288098692894
1782943316951678500,3.439678466796875,0.00043796258978545666,0.0019288593903183937,0.0014590490609407425
1782943316961663500,3.44966357421875,-0.0018291864544153214,-0.001085040159523487,-0.0010307403281331062
1782943316971647500,3.4596474609375,0.0013143131509423256,-0.00019437074661254883,0.0031788735650479794
1782943316981632500,3.469632568359375,0.0009537213481962681,-0.0006345920264720917,-0.0003852350637316704
1782943316991617500,3.479617431640625,0.0002488084137439728,0.0013815341517329216,0.00007416075095534325
1782943317001602600,3.4896025390625,0.0008570742793381214,0.0002278527244925499,-0.0015229368582367897
1782943317011587600,3.499587646484375,-0.0002000909298658371,-0.0010196417570114136,0.00033875834196805954
1782943317021572600,3.509572509765625,0.0016153857577592134,0.0003407001495361328,0.00046712299808859825
1782943317031556600,3.519556640625,-0.0014540082775056362,-0.0005788132548332214,-0.002103255596011877
1782943317041541600,3.529541748046875,-0.0003248276188969612,-0.000984678976237774,0.0001649591140449047
1782943317051526700,3.539526611328125,0.0011849941220134497,-0.0017144447192549706,0.0003635091707110405
1782943317061511400,3.549511474609375,-0.001113313715904951,-0.000016413629055023193,0.0010961447842419147
1782943317071496400,3.559496337890625,-0.00002525467425584793,-0.00031713396310806274,-0.0011368030682206154
1782943317081481500,3.5694814453125,-0.0027483366429805756,0.0010117832571268082,-0.0021400153636932373
1782943317091466500,3.579466552734375,-0.0004986594431102276,0.0015046559274196625,-0.0010806405916810036
1782943317101450500,3.589450439453125,-0.0012944117188453674,-0.0025734426453709602,0.0007705227471888065
1782943317111435800,3.599435791015625,-0.0026718731969594955,-0.0001522805541753769,-0.0015484956093132496
1782943317121420500,3.609420654296875,0.0002490817569196224,-0.0002430938184261322,0.002586062066257
1782943317131405600,3.619405517578125,0.00008516572415828705,0.0011504320427775383,0.0006567179225385189
1782943317141390600,3.629390625,0.002460971474647522,-0.0006426749750971794,0.000042593106627464294
1782943317151375600,3.639375732421875,-0.0034242658875882626,0.0005047107115387917,0.00005451962351799011
1782943317161359600,3.649359619140625,-0.00119786337018013,0.000620557926595211,-0.0005558771081268787
1782943317171344600,3.6593447265625,0.0010333864483982325,-0.001150086522102356,0.0007026218809187412
1782943317181329400,3.669329345703125,-0.0003445330075919628,0.0001394161954522133,0.0000903611071407795
1782943317191314400,3.679314453125,0.0002612271346151829,-0.001552557572722435,-0.00034371623769402504
1782943317201299500,3.689299560546875,-0.00020216312259435654,-0.000789295881986618,-0.005419169086962938
1782943317211284700,3.69928466796875,0.000439896946772933,0.0010084910318255424,-0.002828288823366165
1782943317221269500,3.70926953125,-0.0007215077057480812,-0.0021995529532432556,0.002478592563420534
1782943317231253500,3.71925341796875,0.00025305943563580513,-0.0031920503824949265,0.0004850635305047035
1782943317241238500,3.729238525390625,0.0002211015671491623,0.0012295963242650032,-0.0003431793302297592
1782943317251223600,3.7392236328125,0.001151225296780467,0.000870121642947197,0.0015181014314293861
1782943317261208600,3.74920849609375,0.002424748847261071,0.0001739710569381714,-0.00029950588941574097
1782943317271193600,3.759193603515625,-0.000029364600777626038,-0.0004862053319811821,0.0014746300876140594
1782943317281178400,3.769178466796875,-0.0006315051577985287,-0.001573840156197548,-0.0011078370735049248
1782943317291162400,3.779162353515625,0.0023389235138893127,-0.01405890192836523,-0.006651653442531824
1782943317301147400,3.7891474609375,0.014584937132894993,-0.05393388122320175,-0.02652069926261902
1782943317311132400,3.79913232421875,-0.009914519265294075,0.025028489530086517,0.02085406705737114
1782943317321117700,3.80911767578125,-0.0015809554606676102,0.027730800211429596,0.015577813610434532
1782943317331102700,3.819102783203125,0.006225379183888435,0.00685688853263855,-0.006039079744368792
1782943317341087500,3.82908740234375,0.0003059706650674343,0.009433230385184288,-0.002724242862313986
1782943317351072500,3.839072509765625,-0.0011947588063776493,-0.025312472134828568,-0.005567426793277264
1782943317361056500,3.849056396484375,0.0024138246662914753,0.00412397924810648,0.00029259268194437027
1782943317371041500,3.85904150390625,0.00020237360149621964,0.012838348746299744,0.0019818288274109364
1782943317381026600,3.869026611328125,0.0006191583815962076,-0.010838751681149006,-0.003503217827528715
1782943317391011600,3.879011474609375,0.0025170352309942245,0.011216341517865658,0.0031328927725553513
1782943317400996400,3.888996337890625,0.00417671725153923,-0.010545145720243454,-0.0018203207291662693
1782943317410981600,3.898981689453125,-0.0012087291106581688,0.008166685700416565,0.0022434480488300323
1782943317420965400,3.90896533203125,0.0019636282231658697,-0.002077961340546608,-0.002707368228584528
1782943317430950700,3.91895068359375,-0.0013270797207951546,0.0025550834834575653,0.0035072872415184975
1782943317440935700,3.928935791015625,0.0010319484863430262,0.0017928872257471085,-0.0017018555663526058
1782943317450920700,3.938920654296875,-0.0008321488276124001,-0.000025404617190361023,0.001538707409054041
1782943317460905500,3.948905517578125,0.0010714787058532238,0.0017927354201674461,0.000026298221200704575
1782943317470890500,3.958890380859375,-0.002628241665661335,-0.001789504662156105,-0.0008079768158495426
1782943317480876000,3.9688759765625,0.0008815384935587645,0.00021532271057367325,0.00030362606048583984
1782943317490860000,3.978860107421875,0.0007598516531288624,-0.0023356666788458824,-0.0019649406895041466
1782943317500843800,3.98884375,-0.0016369936056435108,0.0011530742049217224,-0.0011931564658880234
1782943317510829000,3.9988291015625,0.000787470256909728,0.0007665054872632027,-0.0025929496623575687
1782943317520813800,4.008813720703125,-0.000031451694667339325,-0.0008239345625042915,0.0029424307867884636
1782943317530798800,4.018798828125,-0.0017346194945275784,0.0013002585619688034,0.0001256195828318596
1782943317540783900,4.028783935546875,-0.00023978715762495995,0.00043739378452301025,-0.0011630835942924023
1782943317550767900,4.038767822265625,0.0005112623330205679,-0.0027722762897610664,0.0003455895930528641
1782943317560753000,4.0487529296875,-0.0003667818382382393,0.000798489898443222,-0.0012757424265146255
1782943317570738000,4.058738037109375,0.0010402628686279058,-0.002475268207490444,0.0006956434808671474
1782943317580722700,4.06872265625,-0.002354735042899847,0.0008227899670600891,0.000292973592877388
1782943317590707700,4.078707763671875,0.0011011329479515553,-0.00020721741020679474,0.0010839710012078285
1782943317600693000,4.08869287109375,0.0002739550545811653,-0.0014003133401274681,0.002322074957191944
1782943317610676700,4.0986767578125,-0.00026777852326631546,-0.0018837284296751022,-0.0019024382345378399
1782943317620662000,4.108662109375,0.0006925573106855154,0.000051324255764484406,0.0007838918827474117
1782943317630647000,4.11864697265625,-0.0009800400584936142,-0.0006695585325360298,0.00004390766844153404
1782943317640631800,4.1286318359375,0.0023065670393407345,0.00011447537690401077,0.0002590911462903023
1782943317650616800,4.138616943359375,0.0016567753627896309,0.0001657288521528244,-0.0005200202576816082
1782943317660601900,4.148601806640625,-0.0004119682125747204,0.0018445849418640137,0.0014616376720368862
1782943317670587000,4.1585869140625,0.001234664348885417,-0.0017429590225219727,0.0004349891096353531
1782943317680571000,4.16857080078125,-0.00011955294758081436,0.0019713519141077995,-0.0005213520489633083
1782943317690556000,4.178555908203125,-0.00042732618749141693,0.0005388446152210236,-0.0014024097472429276
1782943317700540700,4.188540771484375,-0.0013061692006886005,-0.001642017625272274,-0.0012269075959920883
1782943317710526000,4.19852587890625,0.0013190670870244503,0.00021700747311115265,0.0012716250494122505
1782943317720511000,4.208510986328125,-0.00021784333512187004,-0.00040004681795835495,0.00027214037254452705
1782943317730496000,4.21849609375,-0.002564620692282915,-0.0010408032685518265,-0.0035292557440698147
1782943317740481000,4.22848095703125,-0.00022130552679300308,0.0024418123066425323,-0.0019742357544600964
1782943317750465000,4.238465087890625,-0.0011836863122880459,0.0004933793097734451,0.0006721150130033493
1782943317760449800,4.24844970703125,-0.001400467474013567,0.0007096277549862862,0.00012403633445501328
1782943317770434800,4.258434814453125,0.000285513699054718,0.00009302422404289246,-0.0012651733122766018
1782943317780419800,4.268419921875,-0.0008396715857088566,0.0012975716963410378,0.00007492955774068832
1782943317790404900,4.27840478515625,-0.000998188741505146,-0.0014921817928552628,-0.0006303973495960236
1782943317800390000,4.288389892578125,-0.00046715419739484787,0.0006985347718000412,0.0002620276063680649
1782943317810375000,4.298375,-0.0011320970952510834,0.00020508281886577606,0.0017173695378005505
1782943317820359000,4.30835888671875,0.0007225282024592161,-0.000367497093975544,0.0003695436753332615
1782943317830344000,4.318343994140625,0.0009928697254508734,0.0015620766207575798,-0.0011472818441689014
1782943317840329000,4.328328857421875,0.0007824799977242947,-0.00007390324026346207,0.002691664732992649
1782943317850314000,4.33831396484375,0.002247751224786043,0.0002150498330593109,0.001387780997902155
1782943317860298800,4.348298828125,0.0005222975742071867,-0.0029151709750294685,-0.00060246791690588
1782943317870283800,4.35828369140625,0.0005503632128238678,0.0009119110181927681,-0.0011238669976592064
1782943317880267800,4.368267822265625,-0.0008190344087779522,-0.0006218040362000465,-0.000131306704133749
1782943317890252800,4.378252685546875,-0.0017774584703147411,0.00024428591132164,-0.0027636513113975525
1782943317900237800,4.38823779296875,-0.0009630639106035233,0.0015343213453888893,0.0005077761597931385
1782943317910222800,4.398222900390625,0.00041127949953079224,0.004086586646735668,-0.0023535536602139473
1782943317920208000,4.408207763671875,-0.000015358906239271164,0.0019723037257790565,-0.0007197046652436256
1782943317930193000,4.41819287109375,0.0023515226785093546,-0.00046892929822206497,-0.0013573262840509415
1782943317940178000,4.428177978515625,-0.0008109812624752522,0.00018327869474887848,0.00010155327618122101
1782943317950162000,4.438161865234375,0.0013282881118357182,-0.0004252921789884567,-0.0015278751961886883
1782943317960147000,4.44814697265625,-0.00007546413689851761,-0.0008380822837352753,-0.0004407730884850025
1782943317970132000,4.458132080078125,0.0008721181657165289,-0.0005218992009758949,-0.0018900083377957344
1782943317980116700,4.46811669921875,0.000053462572395801544,-0.001950952224433422,-0.0009131608530879021
1782943317990101800,4.478101806640625,-0.0021323980763554573,0.0007914137095212936,-0.001964071299880743
1782943318000086800,4.488086669921875,0.0005459431558847427,0.0010542673990130424,0.0011169398203492165
1782943318010071800,4.49807177734375,-0.0014063422568142414,-0.00021852552890777588,-0.0009150197729468346
1782943318020055800,4.508055908203125,0.0010320479050278664,-0.0007943008095026016,0.0014594546519219875
1782943318030041000,4.518041015625,-0.00037996238097548485,0.0013255942612886429,-0.0012459647841751575
1782943318040025900,4.52802587890625,0.0010903687216341496,-0.0000376775860786438,0.0013996190391480923
1782943318050011000,4.538010986328125,-0.00043967366218566895,0.0004944391548633575,0.00009683379903435707
1782943318059996000,4.547995849609375,0.0013795318081974983,-0.0004437929019331932,-0.001418504398316145
1782943318069981000,4.55798095703125,0.0010540024377405643,-0.0028525469824671745,0.0009263679385185242
1782943318079966000,4.567966064453125,0.00004732748493552208,-0.0020227059721946716,-0.0007674028165638447
1782943318089950000,4.577949951171875,0.00017872639000415802,-0.0002391999587416649,0.0005775643512606621
1782943318099934700,4.587934814453125,-0.0003155563026666641,0.0023680338636040688,0.0012087337672710419
1782943318109919700,4.597919677734375,-0.00020697340369224548,0.00003110431134700775,-0.00013431953266263008
1782943318119904800,4.60790478515625,0.0015581697225570679,0.0027083801105618477,-0.001734612975269556
1782943318129890000,4.61789013671875,0.0007933857850730419,0.003338226117193699,0.00038419105112552643
1782943318139874800,4.627874755859375,-0.0005887947045266628,-0.0012168437242507935,-0.0007252818904817104
1782943318149859000,4.637859130859375,0.0020715147256851196,0.00013399310410022736,-0.00005339551717042923
1782943318159843800,4.64784375,-0.00033252080902457237,0.0022765062749385834,-0.0009420928545296192
1782943318169828900,4.657828857421875,-0.00038294587284326553,0.0019796546548604965,-0.0017714821733534336
1782943318179814000,4.66781396484375,-0.002178449183702469,-0.0004856334999203682,-0.0006385729648172855
1782943318189799000,4.677798828125,0.0011535894591361284,-0.0011296439915895462,-0.0008504190482199192
1782943318199783700,4.68778369140625,0.0013005961664021015,0.0002032676711678505,0.0006654523313045502
1782943318209768700,4.697768798828125,-0.002570175565779209,0.00022723712027072906,0.0012171450071036816
1782943318219752700,4.707752685546875,-0.0002777264453470707,0.0015279250219464302,-0.0023400397039949894
1782943318229737700,4.71773779296875,-0.00009314389899373055,0.0018704421818256378,0.0001223888248205185
1782943318239723000,4.727722900390625,-0.00021911179646849632,-0.0015352088958024979,0.0011319932527840137
1782943318249708000,4.7377080078125,-0.0011780918575823307,0.00016782246530056,-0.0011990265920758247
1782943318259692800,4.74769287109375,-0.0009466633200645447,0.0004855375736951828,-0.0004581352695822716
1782943318269677800,4.757677734375,-0.0003198985941708088,-0.0005072765052318573,-0.0007971208542585373
1782943318279662800,4.767662841796875,-0.0004317513667047024,0.0007920796051621437,0.0025227759033441544
1782943318289646800,4.777646728515625,-0.0005418788641691208,-0.002371762879192829,0.00037673721089959145
1782943318299631900,4.7876318359375,0.00004161987453699112,-0.00030461791902780533,-0.0046616969630122185
1782943318309617000,4.797616943359375,-0.0011203107424080372,0.0012083929032087326,0.0006537125445902348
1782943318319601700,4.8076015625,0.0014086272567510605,-0.003210590220987797,0.0017338907346129417
1782943318329587000,4.8175869140625,0.0012081165332347155,-0.0020588114857673645,-0.0013189120218157768
1782943318339572000,4.827572021484375,-0.00332884443923831,0.0008714646100997925,-0.0022787153720855713
1782943318349557000,4.837556884765625,0.001219611382111907,0.00018978863954544067,0.002431930508464575
1782943318359541000,4.847541015625,0.0009865849278867245,-0.002365514636039734,-0.00021924637258052826
1782943318369526000,4.857526123046875,-0.0017201579175889492,-0.0005867378786206245,-0.0013891779817640781
1782943318379510800,4.8675107421875,0.0005477899685502052,-0.002600354142487049,-0.0012980983592569828
1782943318389495800,4.877495849609375,0.0010338490828871727,0.005229489877820015,-0.0002727145329117775
1782943318399480800,4.887480712890625,0.0006652676966041327,0.0003140931949019432,0.000985895749181509
1782943318409465900,4.8974658203125,-0.0007138513028621674,-0.000048036687076091766,0.0005094506777822971
1782943318419451000,4.907450927734375,-0.0013966858386993408,-0.00031275488436222076,0.0009041312150657177
1782943318429435000,4.917434814453125,0.0005273455753922462,-0.0007790746167302132,-0.00028327852487564087
1782943318439420000,4.927419921875,0.0007995206397026777,0.0004076305776834488,0.004630520008504391
1782943318449405000,4.937405029296875,-0.0001934911124408245,0.0011393530294299126,0.0024566673673689365
1782943318459390000,4.947389892578125,0.003059027250856161,0.0008863527327775955,-0.001023817341774702
1782943318469375000,4.957375,-0.000668868888169527,0.00009501352906227112,-0.0009883241727948189
1782943318479360000,4.967360107421875,0.0020803124643862247,-0.0010847663506865501,0.002242622897028923
1782943318489345000,4.977344970703125,-0.0006997575983405113,-0.002127411775290966,-0.0004459512419998646
1782943318499329000,4.9873291015625,-0.0009104139171540737,0.0021791867911815643,-0.004759473260492086
1782943318509314000,4.99731396484375,0.0010771015658974648,-0.001095089130103588,-0.000023502856492996216
1782943318519299000,5.007299072265625,-0.0010307901538908482,-0.00019147805869579315,-0.0023665516637265682
1782943318529284400,5.017284423828125,0.00013373233377933502,-0.0009404607117176056,-0.003584283869713545
1782943318539269000,5.02726904296875,0.0013132465537637472,0.0016252286732196808,0.0013604075647890568
1782943318549254100,5.037254150390625,0.0002528587356209755,-0.0006713699549436569,0.001372805330902338
1782943318559239200,5.0472392578125,-0.0002398258075118065,-0.002168598584830761,0.0006292504258453846
1782943318569223200,5.05722314453125,-0.0005419887602329254,0.0005782404914498329,0.001975405029952526
1782943318579208200,5.067208251953125,0.00009717000648379326,0.0005806367844343185,0.0010179984383285046
1782943318589193200,5.077193115234375,0.0013994791079312563,0.00012263748794794083,0.0018608458340168
1782943318599178000,5.087177978515625,-0.00023357151076197624,-0.002843857742846012,-0.002627112902700901
1782943318609163000,5.0971630859375,0.0010714083909988403,-0.000828026793897152,0.0002444647252559662
1782943318619148000,5.10714794921875,-0.00047002919018268585,0.0013160845264792442,-0.0019118967466056347
1782943318629133300,5.11713330078125,0.000002719927579164505,0.001636807806789875,0.00028561288490891457
1782943318639117300,5.127117431640625,0.0024325880222022533,-0.0006231507286429405,0.0001098443754017353
1782943318649102300,5.137102294921875,0.0021784647833555937,-0.0010617142543196678,-0.00007334677502512932
1782943318659087000,5.147087158203125,0.0008796411566436291,0.002426760271191597,-0.0003111669793725014
1782943318669072100,5.157072021484375,0.00040094275027513504,-0.001368827186524868,-0.0008766450919210911
1782943318679057200,5.16705712890625,-0.0013042790815234184,-0.0006415173411369324,0.0014901063404977322
1782943318689042200,5.177042236328125,0.00022331159561872482,-0.0006086248904466629,-0.0001588091254234314
1782943318699027000,5.18702685546875,-0.0008640573360025883,-0.004332256503403187,0.0020353691652417183
1782943318709011200,5.19701123046875,-0.0005114995874464512,-0.0003892192617058754,-0.0002547618933022022
1782943318718996000,5.206995849609375,0.00011168001219630241,0.0017373152077198029,-0.0015157684683799744
1782943318728981000,5.21698095703125,-0.00048286933451890945,-0.0001110536977648735,0.0021105376072227955
1782943318738966300,5.22696630859375,0.00004683341830968857,0.0011153314262628555,0.0023813811130821705
1782943318748951300,5.236951416015625,0.0003685790579766035,-0.0009219292551279068,0.001284338068217039
1782943318758936000,5.24693603515625,-0.001179516315460205,-0.001823674887418747,0.0014808792620897293
1782943318768921000,5.256921142578125,0.0008459535893052816,-0.0010754633694887161,-0.00006748316809535027
1782943318778905000,5.266905029296875,-0.0004235752858221531,0.0004041893407702446,-0.0024563390761613846
1782943318788890000,5.27689013671875,-0.002079339697957039,0.002653593197464943,0.0003560543991625309
1782943318798875100,5.286875244140625,0.0008301637135446072,-0.001297738403081894,-0.00016379496082663536
1782943318808860200,5.296860107421875,-0.00011340668424963951,-0.0009609172120690346,0.0022847801446914673
1782943318818845000,5.306844970703125,0.0005523837171494961,-0.0024778535589575768,-0.0015512369573116302
1782943318828830200,5.316830322265625,-0.0016808779910206795,-0.002257000654935837,-0.002908963244408369
1782943318838815200,5.326815185546875,-0.0007248031906783581,0.000270339660346508,0.000009062699973583221
1782943318848799200,5.33679931640625,0.00011929171159863472,0.0006064064800739288,0.0017787506803870201
1782943318858784300,5.3467841796875,-0.0019377339631319046,-0.0013259826228022575,0.0014719543978571892
1782943318868769300,5.356769287109375,-0.0013482864014804363,0.0011329418048262596,-0.0000847354531288147
1782943318878754000,5.366754150390625,-0.0005264347419142723,0.0008506467565894127,0.0020194281823933125
1782943318888739000,5.376739013671875,0.00030398136004805565,-0.00018424447625875473,-0.0008726185187697411
1782943318898724000,5.38672412109375,0.003102697432041168,0.0027633411809802055,0.0006147571839392185
1782943318908709000,5.396709228515625,0.0004944612737745047,-0.001098419539630413,-0.002587615977972746
1782943318918693000,5.406693115234375,-0.0013543050736188889,0.0003247736021876335,-0.0012728138826787472
1782943318928678100,5.41667822265625,0.00012994883581995964,-0.0006932290270924568,-0.0014682896435260773
1782943318938663000,5.426662841796875,0.0003113101702183485,-0.0005400972440838814,0.0012089861556887627
1782943318948648200,5.436648193359375,0.0000384538434445858,-0.0018059099093079567,-0.0008627036586403847
1782943318958633200,5.44663330078125,-0.0011993832886219025,-0.0006146784871816635,0.0005455757491290569
1782943318968618200,5.4566181640625,-0.0004515848122537136,0.0013128947466611862,-0.0013317265547811985
1782943318978603000,5.46660302734375,-0.0002651633694767952,0.0008457759395241737,-0.0004661991260945797
1782943318988587300,5.476587158203125,-0.0012351754121482372,0.0007037641480565071,-0.0002935086376965046
1782943318998572000,5.486572021484375,0.0007890933193266392,0.0014507807791233063,0.0006492501124739647
1782943319008557000,5.49655712890625,-0.0006013833917677402,-0.0008161226287484169,-0.0033326265402138233
1782943319018542000,5.5065419921875,-0.0004085707478225231,-0.0010672593489289284,0.001186491921544075
1782943319028527000,5.516527099609375,0.0008227676153182983,-0.00035631563514471054,0.0002827811986207962
1782943319038512000,5.52651220703125,-0.00020627770572900772,0.0010932432487607002,-0.0013276324607431889
1782943319048497200,5.5364970703125,-0.0009623775258660316,0.001262478530406952,-0.0024980553425848484
1782943319058481200,5.546481201171875,-0.0020212503150105476,-0.0004704408347606659,0.0023614149540662766
1782943319068466200,5.556466064453125,0.00021042488515377045,0.00010746903717517853,-0.0005506090819835663
1782943319078451200,5.566451171875,0.00022746901959180832,-0.0019253212958574295,0.000447277445346117
1782943319088436200,5.576436279296875,-0.00019128061830997467,0.0017304392531514168,0.002481725998222828
1782943319098421000,5.5864208984375,-0.0014751902781426907,0.0018034102395176888,-0.00032817525789141655
1782943319108406000,5.596406005859375,-0.001228503417223692,-0.0006817774847149849,-0.0025760275311768055
1782943319118391000,5.60639111328125,-0.0003371434286236763,0.0002021249383687973,0.00016143638640642166
1782943319128375000,5.616375,-0.0015996391884982586,0.0005853371694684029,0.0013981801457703114
1782943319138360000,5.626360107421875,0.0007556604687124491,-0.000520939938724041,0.002502592746168375
1782943319148345300,5.636345458984375,-0.0004999339580535889,-0.0002620723098516464,-0.0010461588390171528
1782943319158330000,5.646330078125,0.0009669351857155561,0.00119041558355093,-0.0014269915409386158
1782943319168315100,5.656315185546875,0.0008285872172564268,-0.0022802334278821945,-0.0009500556625425816
1782943319178300200,5.666300048828125,0.001986263319849968,0.0017275577411055565,0.00021587591618299484
1782943319188285200,5.67628515625,0.0020418823696672916,-0.0009438954293727875,-0.00013337982818484306
1782943319198269200,5.686269287109375,0.00032893731258809566,-0.0007034121081233025,0.002227512653917074
1782943319208254200,5.696254150390625,0.000805021496489644,-0.0010912390425801277,0.00011287117376923561
1782943319218239000,5.706239013671875,0.0012495031114667654,0.0005420772358775139,0.0013499092310667038
1782943319228224000,5.71622412109375,-0.00027046771720051765,-0.0004374515265226364,0.0006916066631674767
1782943319238209000,5.726208984375,0.00017028534784913063,0.0014595184475183487,0.0014862939715385437
1782943319248194300,5.7361943359375,0.00021383492276072502,0.0026617441326379776,-0.001978581305593252
1782943319258179000,5.746178955078125,-0.0013142870739102364,-0.00044723041355609894,0.0012164129875600338
1782943319268164000,5.7561640625,0.0005708057433366776,0.0006029689684510231,-0.00027057062834501266
1782943319278148000,5.766148193359375,0.001095714746043086,-0.001805860549211502,-0.001765669323503971
1782943319288133000,5.776133056640625,-0.0003311564214527607,-0.00034889020025730133,-0.0006800568662583828
1782943319298118100,5.7861181640625,0.0008861743845045567,0.000886816531419754,0.00030185095965862274
1782943319308103200,5.796103271484375,0.0018449595663696527,0.0013758447021245956,0.002635871060192585
1782943319318088000,5.806087890625,0.00024413364008069038,0.0007055271416902542,-0.002715484704822302
1782943319328073000,5.816072998046875,-0.0007672607898712158,-0.0011779339984059334,0.00017640460282564163
1782943319338058200,5.826058349609375,-0.00027484260499477386,0.001238086260855198,0.0015047891065478325
1782943319348042000,5.8360419921875,-0.001142632681876421,0.0008095605298876762,-0.0012403461150825024
1782943319358027300,5.84602734375,-0.001170596107840538,-0.00016489066183567047,-0.00009278999641537666
1782943319368012300,5.85601220703125,0.000234297476708889,-0.000697622075676918,-0.00022208038717508316
1782943319377997000,5.8659970703125,-0.000274099875241518,-0.0001996103674173355,0.0004423786886036396
1782943319387982000,5.875982177734375,0.00028221728280186653,-0.0004098331555724144,0.0009232261218130589
1782943319397967000,5.885967041015625,-0.00006292853504419327,0.0008663535118103027,0.001934428233653307
1782943319407952100,5.8959521484375,-0.0002091224305331707,0.001082385890185833,-0.0002368413843214512
1782943319417936100,5.90593603515625,0.0005040722899138927,-0.003364560194313526,-0.0013013067655265331
1782943319427921200,5.915921142578125,-0.0002262042835354805,-0.0014545014128088951,0.00006673438474535942
1782943319437906000,5.925906005859375,0.000024399254471063614,-0.001410558819770813,-0.00021369615569710732
1782943319447891200,5.93589111328125,-0.0006778119131922722,0.00008369702845811844,0.0025617461651563644
1782943319457876200,5.945876220703125,0.0011523126158863306,-0.0005581248551607132,-0.00018850062042474747
1782943319467861200,5.955861328125,-0.00132767204195261,0.0008330224081873894,-0.00043792417272925377
1782943319477846300,5.96584619140625,0.00080818310379982,0.000422096811234951,-0.0003508389927446842
1782943319487830500,5.97583056640625,0.0000961017794907093,0.0002887565642595291,-0.0021075336262583733
1782943319497815300,5.985815185546875,0.0008239434100687504,-0.0007354952394962311,-0.000830547884106636
1782943319507800300,5.99580029296875,-0.0010644481517374516,-0.0009252894669771194,0.0009414390660822392
1782943319517785300,6.005785400390625,-0.0004521873779594898,0.00043611880391836166,-0.0012010741047561169
1782943319527770400,6.015770263671875,0.0013909358531236649,-0.0010605193674564362,0.0015424666926264763
1782943319537755400,6.02575537109375,0.0012961274478584528,-0.001465054228901863,-0.0006985836662352085
1782943319547740400,6.035740478515625,-0.0015465416945517063,0.0006089657545089722,0.000933527946472168
1782943319557725400,6.045725341796875,0.00021753599867224693,0.0010356046259403229,0.0004994324408471584
1782943319567709400,6.05570947265625,0.0007234765216708183,-0.0007236311212182045,0.0007631611078977585
1782943319577694500,6.065694580078125,0.0009887274354696274,-0.0012245718389749527,0.0001615532673895359
1782943319587679500,6.075679443359375,-0.0011257631704211235,0.0011674724519252777,0.002366495318710804
1782943319597664300,6.085664306640625,-0.0006341435946524143,0.000363997183740139,-0.0012383596040308475
1782943319607649300,6.095649169921875,-0.0020576664246618748,-0.00043291691690683365,-0.0004575122147798538
1782943319617634300,6.10563427734375,0.0012409246992319822,-0.0012342622503638268,0.0009017651900649071
1782943319627619300,6.115619384765625,-0.002649043221026659,-0.0002672942355275154,-0.0011369581334292889
1782943319637603300,6.125603271484375,0.0033886090386658907,-0.000921366736292839,-0.0021582809276878834
1782943319647588600,6.135588623046875,0.00015771901234984398,-0.0006318539381027222,-0.001380369532853365
1782943319657573400,6.145573486328125,-0.0014066221192479134,0.003156225197017193,-0.000319099985063076
1782943319667558400,6.155558349609375,0.0003127753734588623,0.00008420739322900772,-0.0012106439098715782
1782943319677543400,6.16554345703125,-0.0009423722513020039,-0.0012348564341664314,-0.0014399420469999313
1782943319687528400,6.175528564453125,-0.00022519100457429886,0.003663579933345318,-0.00046332692727446556
1782943319697513200,6.18551318359375,-0.0013037710450589657,-0.0012763170525431633,-0.00036372384056448936
1782943319707498200,6.195498291015625,-0.001425501424819231,-0.0013064900413155556,-0.00038528861477971077
1782943319717482200,6.205482177734375,0.0009545653592795134,0.0011068666353821754,-0.0017634746618568897
1782943319727467300,6.21546728515625,-0.0011802962981164455,0.00017283577471971512,-0.0000021532177925109863
1782943319737452300,6.225452392578125,-0.0005075815133750439,-0.0021606264635920525,0.0006508538499474525
1782943319747437600,6.2354375,0.0010487108957022429,-0.0021483441814780235,-0.001631239429116249
1782943319757422300,6.24542236328125,0.00011687073856592178,0.0029169879853725433,0.00024655554443597794
1782943319767407400,6.255407470703125,-0.0026152501814067364,-0.0014670798555016518,-0.0005494062788784504
1782943319777392400,6.265392333984375,0.0020607279147952795,-0.0017677508294582367,-0.002368877176195383
1782943319787376400,6.27537646484375,0.0013015128206461668,-0.000618412159383297,0.0009852848015725613
1782943319797361400,6.285361328125,-0.0002465830184519291,-0.0004948414862155914,0.0016111275181174278
1782943319807346400,6.295346435546875,0.002609764225780964,0.0018025794997811317,0.00005748448893427849
1782943319817331200,6.305331298828125,-0.002161288633942604,0.00046993326395750046,-0.0006210892461240292
1782943319827316200,6.315316162109375,-0.0013459543697535992,-0.0001515233889222145,-0.002145743928849697
1782943319837301200,6.32530126953125,0.0006261165253818035,0.0016290657222270966,-0.003307681530714035
1782943319847286500,6.33528662109375,-0.0014911885373294353,-0.0011156629770994186,-0.000567012932151556
1782943319857270500,6.3452705078125,0.00011576293036341667,-0.0011838395148515701,-0.001257303636521101
1782943319867255600,6.355255615234375,-0.001873718574643135,-0.00015698187053203583,0.00229992950335145
1782943319877240300,6.365240234375,0.0004677325487136841,0.00044755637645721436,0.0011134915985167027
1782943319887225300,6.375225341796875,0.0008644533809274435,-0.002356182783842087,0.00033716997131705284
1782943319897210400,6.38521044921875,0.0013145275879651308,-0.0017098337411880493,0.002378749195486307
1782943319907195400,6.3951953125,0.00016672257333993912,-0.0003279261291027069,-0.0008265790529549122
1782943319917180400,6.405180419921875,0.0018746075220406055,0.0008390713483095169,-0.00021538371220231056
1782943319927165200,6.415165283203125,-0.001610754057765007,-0.00267789326608181,-0.0013464493677020073
1782943319937149200,6.425149169921875,0.00180128775537014,0.00028460659086704254,0.0015041986480355263
1782943319947134200,6.43513427734375,0.0004935616161674261,-0.0002989377826452255,-0.0014540459960699081
1782943319957119500,6.445119384765625,0.0011260623577982187,-0.0009114649146795273,0.00022374512627720833
1782943319967104500,6.4551044921875,0.000978459371253848,0.0007647182792425156,-0.0015331939794123173
1782943319977089300,6.46508935546875,0.00027298787608742714,-0.002060895785689354,0.00023194868117570877
1782943319987074300,6.47507421875,0.0017371559515595436,-0.0016640936955809593,-0.001453859731554985
1782943319997059300,6.485059326171875,0.0008093107026070356,0.0010848212987184525,-0.00034518633037805557
1782943320007043300,6.495043212890625,0.000989652005955577,-0.0030324626713991165,-0.0012153983116149902
1782943320017028400,6.5050283203125,-0.0007826816290616989,0.00017345044761896133,0.000007525552064180374
1782943320027013400,6.515013427734375,-0.0015741088427603245,0.000015733763575553894,-0.0016549909487366676
1782943320036998100,6.524998046875,0.00014229817315936089,0.00008577480912208557,-0.0015593841671943665
1782943320046983400,6.5349833984375,-0.0003669620491564274,-0.0012536626309156418,0.0015060449950397015
1782943320056968400,6.544968505859375,0.0010666176676750183,0.0008036289364099503,0.0012186900712549686
1782943320066953500,6.554953369140625,0.0014782615471631289,-0.001470481976866722,-0.002021889667958021
1782943320076938500,6.5649384765625,0.0008550819475203753,-0.0022321464493870735,0.00026629818603396416
1782943320086922500,6.574922607421875,-0.0014770119450986385,-0.0010792389512062073,-0.00009128684177994728
1782943320096907300,6.5849072265625,0.00024392269551753998,0.0019442476332187653,0.0005454747006297112
1782943320106892300,6.594892333984375,-0.00009780144318938255,-0.0001508062705397606,-0.0002590394578874111
1782943320116877300,6.604877197265625,0.0014854478649795055,0.00021324865520000458,-0.0012995367869734764
1782943320126862300,6.6148623046875,0.001471211900934577,0.0017516445368528366,0.0005862228572368622
1782943320136847400,6.624847412109375,-0.0000941939651966095,-0.0010028630495071411,0.00006291177123785019
1782943320146832400,6.634832275390625,-0.0009532999247312546,-0.002270616590976715,0.0018777553923428059
1782943320156817400,6.6448173828125,0.00023553520441055298,0.0008484777063131332,0.0009672208689153194
1782943320166801400,6.654801513671875,0.0017655063420534134,0.00038246531039476395,0.0007234066724777222
1782943320176786400,6.664786376953125,0.0011210213415324688,-0.000496644526720047,0.0005974387750029564
1782943320186771500,6.674771484375,-0.0008035507053136826,-0.0008680457249283791,-0.0019434429705142975
1782943320196756500,6.684756591796875,0.000799406087026,-0.00430485513061285,0.0008613984100520611
1782943320206741200,6.6947412109375,-0.0009627081453800201,-0.0007900968194007874,0.0007805721834301949
1782943320216726300,6.704726318359375,0.0003747311420738697,-0.0013174023479223251,0.001530251931399107
1782943320226711300,6.714711181640625,0.0004297990817576647,-0.0004182392731308937,-0.0017656227573752403
1782943320236695300,6.7246953125,-0.0012871408835053444,0.0006598085165023804,0.0008661127649247646
1782943320246680300,6.734680419921875,-0.0003137257881462574,0.000513121485710144,-0.0013066199608147144
1782943320256665300,6.744665283203125,-0.0015209363773465157,-0.000908740796148777,0.0006603910587728024
1782943320266650400,6.754650390625,0.0005274338182061911,-0.001344805583357811,-0.0015535918064415455
1782943320276635400,6.764635498046875,0.0015045476611703634,0.0002698693424463272,-0.0023658559657633305
1782943320286620400,6.774620361328125,-0.001806966494768858,0.000359928235411644,-0.0012843366712331772
1782943320296605400,6.78460546875,0.0031899227760732174,-0.0032465243712067604,-0.0011317376047372818
1782943320306590200,6.794590087890625,-0.0010127774439752102,-0.0006717154756188393,-0.00039846543222665787
1782943320316574200,6.80457421875,0.00016061123460531235,0.0002686465159058571,-0.0025260644033551216
1782943320326559200,6.814559326171875,0.00016350019723176956,0.0008791191503405571,-0.0002881307154893875
1782943320336544300,6.824544189453125,-0.0014586313627660275,-0.000500665046274662,0.00010175583884119987
1782943320346529500,6.834529541015625,-0.0029765060171484947,0.0002775751054286957,0.002511119470000267
1782943320356514600,6.8445146484375,-0.0002720658667385578,-0.0021498966962099075,-0.001453261822462082
1782943320366499300,6.854499267578125,0.0011111591011285782,-0.002263057976961136,-0.003455585800111294
1782943320376484400,6.864484375,0.00089650833979249,0.0010693548247218132,-0.0014419695362448692
1782943320386468400,6.87446826171875,0.0007674121297895908,-0.000055536627769470215,-0.0004933164454996586
1782943320396453400,6.884453369140625,-0.0026518204249441624,-0.0010741958394646645,-0.0003212760202586651
1782943320406438400,6.8944384765625,0.0007224048022180796,-0.0003524795174598694,0.00013625528663396835
1782943320416423400,6.90442333984375,-0.0011012139730155468,0.0008343541994690895,-0.0006557479500770569
1782943320426408200,6.914408203125,0.0006465250626206398,-0.0019096443429589272,0.001008709892630577
1782943320436393200,6.924393310546875,0.0010164380073547363,-0.001138126477599144,0.00203482573851943
1782943320446378500,6.93437841796875,0.0022138517815619707,-0.0002899356186389923,-0.0012710089795291424
1782943320456363500,6.944363525390625,0.001875630347058177,-0.002074785530567169,0.0006451350636780262
1782943320466347500,6.954347412109375,0.0006631722208112478,-0.0001927018165588379,-0.0004365169443190098
1782943320476332500,6.96433251953125,-0.0024756290949881077,0.0008722962811589241,-0.0004833885468542576
1782943320486320400,6.9743203125,0.0019933446310460567,-0.0019693737849593163,0.0009275758638978004
1782943320496305400,6.984305419921875,0.0006593673024326563,-0.002189883030951023,0.0011696568690240383
1782943320506290400,6.99429052734375,-0.001514633186161518,0.12363669276237488,0.0395788699388504
1782943320516275500,7.004275390625,-0.005421224050223827,0.17263299226760864,0.05163686349987984
1782943320526260500,7.014260498046875,0.0014408496208488941,-0.03060809150338173,-0.013170536607503891
1782943320536245200,7.024245361328125,-0.0013450831174850464,-0.025044750422239304,-0.005784525070339441
1782943320546229200,7.034229248046875,0.0018633983563631773,-0.045962680131196976,-0.018903497606515884
1782943320556214300,7.04421435546875,0.0008569897618144751,-0.06121566891670227,-0.018854763358831406
1782943320566199300,7.05419921875,0.0008364892564713955,-0.023426270112395287,-0.008392464369535446
1782943320576184300,7.064184326171875,0.0012812369968742132,-0.001742013730108738,-0.00042774854227900505
1782943320586169600,7.074169677734375,0.0014018816873431206,-0.00472563412040472,-0.0026303078047931194
1782943320596154400,7.084154296875,-0.0009217262268066406,0.0007660705596208572,-0.0019464078359305859
