time,seconds_elapsed,z,y,x
1782943343751441200,0.088441162109375,0.0000887666828930378,-0.0019582482054829597,0.002462584525346756
1782943343761426400,0.098426513671875,0.0005316503811627626,0.0011962661519646645,-0.0007561119273304939
1782943343771411500,0.108411376953125,0.0005611560773104429,0.001812654547393322,-0.0012049106881022453
1782943343781396500,0.118396484375,0.0011467852164059877,0.00018226727843284607,-0.0007646903395652771
1782943343791381200,0.12838134765625,0.0020263127516955137,-0.00024282559752464294,-0.00003449665382504463
1782943343801365200,0.138365234375,0.0007839479949325323,-0.00006785523146390915,0.0005932105705142021
1782943343811350300,0.148350341796875,-0.00004566367715597153,-0.0007698796689510345,-0.0007649282924830914
1782943343821335300,0.158335205078125,-0.0005543278530240059,0.0004594353958964348,0.002541386056691408
1782943343831320300,0.1683203125,-0.0005262126214802265,0.00008958950638771057,-0.0013391347602009773
1782943343841305300,0.178305419921875,0.0002620830200612545,-0.0020230961963534355,0.0015450692735612392
1782943343851290400,0.188290283203125,-0.0005477289669215679,-0.0007190797477960587,0.00039410730823874474
1782943343861275400,0.198275390625,0.0020744195207953453,0.000994664616882801,0.0014782799407839775
1782943343871260400,0.208260498046875,-0.000601672101765871,-0.00013932399451732635,-0.0001414930447936058
1782943343881245400,0.218245361328125,0.0000055283308029174805,-0.0017417483031749725,0.0003474634140729904
1782943343891230500,0.22823046875,0.001551021821796894,-0.00024513062089681625,0.0011139092966914177
1782943343901214500,0.23821435546875,-0.0011020191013813019,-0.0025959033519029617,-0.00173141248524189
1782943343911199200,0.24819921875,-0.001487957313656807,-0.0015384359285235405,0.0009302929975092411
1782943343921184300,0.258184326171875,-0.0009505315683782101,0.0001955479383468628,-0.0003924993798136711
1782943343931169300,0.268169189453125,-0.0004880335181951523,-0.002251974307000637,-0.0007553864270448685
1782943343941154300,0.278154296875,-0.002078739460557699,0.0010562045499682426,-0.00011676084250211716
1782943343951139300,0.288139404296875,-0.002268881071358919,0.001820855773985386,0.00035694753751158714
1782943343961124400,0.298124267578125,0.0019967041444033384,-0.0013701440766453743,0.001978013664484024
1782943343971109400,0.308109375,0.00038474774919450283,-0.00022172927856445312,0.0014573382213711739
1782943343981094400,0.318094482421875,0.002420468023046851,-0.002092333510518074,-0.0012391125783324242
1782943343991078400,0.328078369140625,-0.0004901452921330929,-0.0009142234921455383,-0.001321794930845499
1782943344001063400,0.3380634765625,-0.000482155941426754,-0.0008420515805482864,0.00011178432032465935
1782943344011048200,0.348048095703125,-0.0011573340743780136,0.001455068588256836,-0.001742212101817131
1782943344021033200,0.358033203125,0.00047891237773001194,-0.003526640124619007,0.0012999163009226322
1782943344031018200,0.368018310546875,-0.001044753473252058,-0.001860015094280243,0.0007332754321396351
1782943344041003500,0.37800341796875,-0.0011946894228458405,0.000552009791135788,0.00040117930620908737
1782943344050988500,0.387988525390625,-0.00011037848889827728,-0.0008045006543397903,-0.00014893896877765656
1782943344060973300,0.397973388671875,-0.0004595192149281502,-0.000856432132422924,-0.0013359100557863712
1782943344070958300,0.407958251953125,-0.0013553393073379993,-0.0005571180954575539,-0.000880055595189333
1782943344080943400,0.417943359375,0.00021858885884284973,0.00016805995255708694,-0.0013085580430924892
1782943344090927400,0.42792724609375,0.0012858021073043346,-0.00041481293737888336,0.0004164213314652443
1782943344100912400,0.437912353515625,-0.001456721220165491,0.00048240553587675095,-0.0017852140590548515
1782943344110897400,0.4478974609375,0.001617977861315012,-0.0007066568359732628,-0.0021968199871480465
1782943344120882200,0.457882080078125,-0.0008949809707701206,0.00012424960732460022,-0.0019970829598605633
1782943344130867200,0.4678671875,-0.0013121962547302246,-0.00030758045613765717,-0.00011253263801336288
1782943344140852500,0.4778525390625,-0.0011111274361610413,-0.0003376742824912071,0.0001244889572262764
1782943344150837500,0.48783740234375,-0.00042238831520080566,-0.0024393657222390175,-0.0016178935766220093
1782943344160822300,0.497822265625,-0.0010714009404182434,0.0010501742362976074,0.00015230942517518997
1782943344170807300,0.507807373046875,0.0015330580063164234,-0.0002626068890094757,-0.000810062512755394
1782943344180792300,0.517792236328125,0.0009343794081360102,-0.0011073611676692963,0.0022951834835112095
1782943344190776300,0.5277763671875,0.0011953134089708328,-0.0002112463116645813,-0.002086060121655464
1782943344200761300,0.53776123046875,-0.0024601416662335396,-0.000059446319937705994,0.002500436268746853
1782943344210746400,0.547746337890625,0.001047305529937148,0.0013854317367076874,-0.0014917785301804543
1782943344220731100,0.557731201171875,0.0007639452815055847,0.0001659700646996498,0.00006137695163488388
1782943344230716400,0.56771630859375,0.00016637472435832024,0.00028995610773563385,0.002146570011973381
1782943344240701400,0.577701416015625,-0.0006900979205965996,0.0003413548693060875,-0.0008287131786346436
1782943344250686500,0.5876865234375,0.0000614142045378685,0.0021561598405241966,0.0006690165027976036
1782943344260671500,0.59767138671875,0.0005011020693928003,-0.0010287147015333176,0.0009734160266816616
1782943344270656300,0.60765625,0.0013122318778187037,0.0015419749543070793,0.0012022187002003193
1782943344280641300,0.617641357421875,0.002007050672546029,-0.0008460814133286476,-0.00019221240654587746
1782943344290625300,0.627625244140625,0.00031813979148864746,0.0032982490956783295,0.0026122089475393295
1782943344300610300,0.6376103515625,-0.0005159620195627213,-0.0003212522715330124,-0.0009034303948283195
1782943344310595300,0.64759521484375,0.00034251390025019646,0.000680137425661087,-0.000378582626581192
1782943344320580400,0.657580322265625,0.0006197490729391575,0.0008612321689724922,0.0011410168372094631
1782943344330565400,0.6675654296875,0.0003912998363375664,-0.000005652196705341339,0.0009508281946182251
1782943344340550400,0.67755029296875,-0.0003168350085616112,-0.0009297691285610199,0.000432843342423439
1782943344350535400,0.687535400390625,0.0001243799924850464,0.002601711079478264,0.0004896428436040878
1782943344360520400,0.6975205078125,-0.0008905506692826748,0.0005745124071836472,0.000713348388671875
1782943344370505200,0.707505126953125,0.00013838382437825203,0.0007732538506388664,-0.00018011312931776047
1782943344380490200,0.717490234375,0.002540022134780884,0.0016105519607663155,-0.00039689475670456886
1782943344390474200,0.72747412109375,0.00007160939276218414,0.002323254942893982,0.0017427471466362476
1782943344400459300,0.737459228515625,0.0007810757961124182,0.0008814185857772827,-0.00009296974167227745
1782943344410444300,0.7474443359375,0.000008722767233848572,-0.000585092231631279,-0.0014779465273022652
1782943344420429600,0.7574296875,0.0002563968300819397,-0.0003744354471564293,-0.000053155235946178436
1782943344430414300,0.767414306640625,-0.00030121253803372383,0.00029275938868522644,0.0006525381468236446
1782943344440399400,0.7773994140625,-0.0008865753188729286,-0.0004031248390674591,-0.0008753170259296894
1782943344450384400,0.78738427734375,0.000235765241086483,0.0001318538561463356,-0.0002747783437371254
1782943344460369400,0.797369384765625,0.00048556970432400703,0.0002671424299478531,-0.0023184879682958126
1782943344470354400,0.8073544921875,0.00036431849002838135,-0.0008115079253911972,-0.00026559317484498024
1782943344480338400,0.81733837890625,0.00262640742585063,0.0005307253450155258,0.0016846396028995514
1782943344490323200,0.8273232421875,0.002141843782737851,0.001911848783493042,0.001566640567034483
1782943344500308200,0.83730810546875,-0.0007588714361190796,-0.0011332100257277489,-0.0024344930425286293
1782943344510289200,0.8472890625,-0.000643489882349968,0.00031124427914619446,-0.0019316072575747967
1782943344520274200,0.857274169921875,-0.0009878366254270077,0.002843644469976425,-0.0002607405185699463
1782943344530259200,0.86725927734375,-0.0003129495307803154,-0.0012004915624856949,0.0010406416840851307
1782943344540244200,0.877244140625,-0.00031268317252397537,0.00005918368697166443,0.0018771407194435596
1782943344550229000,0.88722900390625,-0.0006677033379673958,0.00016046129167079926,0.00035372190177440643
1782943344560214000,0.897214111328125,-0.00003893114626407623,-0.0003311578184366226,-0.0012785294093191624
1782943344570198000,0.907197998046875,0.0003922923933714628,0.00007197726517915726,0.001017698086798191
1782943344580183000,0.91718310546875,0.002439996926113963,0.001207815483212471,0.0004488467238843441
1782943344590168300,0.927168212890625,0.0009396416135132313,0.0007047010585665703,0.0015139044262468815
1782943344600153000,0.937153076171875,0.0015782674308866262,0.00046927761286497116,0.0015357425436377525
1782943344610138000,0.94713818359375,-0.000046932604163885117,-3.557652235031128e-7,-0.0002095429226756096
1782943344620123100,0.957123046875,-0.0021268613636493683,0.0009695673361420631,-0.0007365825586020947
1782943344630108200,0.967108154296875,0.00039469311013817787,-0.004388201981782913,-0.0015107011422514915
1782943344640093200,0.97709326171875,-0.0003451327793300152,0.0013328008353710175,-0.001436399295926094
1782943344650078000,0.987077880859375,-0.00047902390360832214,0.0011819470673799515,0.0011110706254839897
1782943344660062000,0.99706201171875,0.0014810627326369286,0.0011609084904193878,-0.0002311626449227333
1782943344670047000,1.007046875,-0.00010630302131175995,0.000986977480351925,-0.00023851217702031136
1782943344680032300,1.0170322265625,-0.0001414567232131958,-0.0007973397150635719,0.0006089056842029095
1782943344690017300,1.027017333984375,-0.0002451101318001747,-0.002872033044695854,0.0004568547010421753
1782943344700002300,1.037002197265625,0.0011011180467903614,0.0015235142782330513,0.0006483360193669796
1782943344709987000,1.046987060546875,-0.0007662312127649784,0.0004508616402745247,-0.0010605566203594208
1782943344719972000,1.05697216796875,0.0004756005946546793,0.0007725711911916733,0.0005160351283848286
1782943344729957000,1.06695703125,0.0009709480218589306,0.0003596572205424309,0.00027919886633753777
1782943344739942100,1.076942138671875,-0.001027221791446209,-0.00002277269959449768,-0.0033267210237681866
1782943344749927200,1.08692724609375,-0.00018588919192552567,-0.002449745312333107,-0.00046949414536356926
1782943344759911200,1.0969111328125,0.002286056987941265,-0.00027021393179893494,-0.001882301177829504
1782943344769896000,1.10689599609375,-0.0002089482732117176,0.0017270026728510857,-0.0009048469364643097
1782943344779881200,1.116881103515625,-0.0014435895718634129,0.002757646143436432,-0.000005498062819242477
1782943344789866200,1.1268662109375,-0.0012429733760654926,-0.0015960736200213432,-0.00036022579297423363
1782943344799851300,1.136851318359375,0.0011426862329244614,0.0019374080002307892,0.0016099805943667889
1782943344809836000,1.1468359375,0.00011972058564424515,0.0021321214735507965,-0.0013093920424580574
1782943344819821000,1.156821044921875,-0.0024190708063542843,-0.0013933712616562843,-0.00040950998663902283
1782943344829806000,1.16680615234375,0.0009847292676568031,0.0027666371315717697,-0.00035468069836497307
1782943344839791000,1.176791015625,0.0012491813395172358,-0.0005489988252520561,-0.0008747964166104794
1782943344849776000,1.186776123046875,-0.0026584905572235584,-0.0007171658799052238,0.0002056504599750042
1782943344859760000,1.196760009765625,0.0029258918948471546,0.00042852573096752167,-0.0010036909952759743
1782943344869745200,1.2067451171875,0.0005926028825342655,0.00070227961987257,-0.000821257010102272
1782943344879730200,1.216730224609375,-0.000015662983059883118,-0.0009811045601963997,0.00023655034601688385
1782943344889715200,1.226715087890625,0.0020228412467986345,-0.000732695683836937,-0.0010055522434413433
1782943344899700200,1.2367001953125,0.002021243330091238,-0.0021652095019817352,0.003007299266755581
1782943344909685200,1.246685302734375,0.00018109427765011787,-0.0005521411076188087,-0.002956302836537361
1782943344919670000,1.256669921875,0.0002844249829649925,0.00139516219496727,-0.001956285908818245
1782943344929655000,1.266655029296875,-0.000544130802154541,-0.000897611491382122,-0.001658606342971325
1782943344939640000,1.27664013671875,-0.0007004579529166222,-0.00018202047795057297,0.0011686054058372974
1782943344949624000,1.2866240234375,0.00011545326560735703,-0.0003566918894648552,0.0016161850653588772
1782943344959609000,1.296609130859375,-0.00027736276388168335,0.002182898111641407,-0.0006459043361246586
1782943344969594400,1.306594482421875,0.0010442619677633047,-0.0000667814165353775,-0.0018260027281939983
1782943344979579100,1.3165791015625,-0.0003951764665544033,0.0017777243629097939,0.0003780289553105831
1782943344989564200,1.326564208984375,-0.000562623143196106,0.0029149753972887993,0.000363251194357872
1782943344999549200,1.336549072265625,0.0002291346900165081,-0.0009210426360368729,-0.0005590012297034264
1782943345009534200,1.3465341796875,0.0008420695085078478,0.0018904376775026321,0.0017346497625112534
1782943345019519000,1.35651904296875,-0.0013201506808400154,0.0022078854963183403,0.0005854954943060875
1782943345029504000,1.36650390625,0.000009952578693628311,-0.0003548320382833481,-0.0007968354038894176
1782943345039488000,1.376488037109375,0.0005819995421916246,-0.0013436637818813324,0.0015696492046117783
1782943345049473000,1.38647314453125,0.0022587566636502743,0.002285139635205269,-0.00109542952850461
1782943345059458300,1.396458251953125,0.0029762121848762035,0.0002574082463979721,0.0006324290297925472
1782943345069443300,1.406443359375,0.00023040128871798515,-0.0012848256155848503,0.0009888168424367905
1782943345079428000,1.416427978515625,-0.0025882883928716183,-0.000542868860065937,-0.002012831624597311
1782943345089413000,1.4264130859375,0.0003913508262485266,0.0008521256968379021,-0.0007655713707208633
1782943345099398100,1.436398193359375,-0.0011365045793354511,-0.002428622916340828,-0.0016452129930257797
1782943345109383200,1.446383056640625,0.0020310371182858944,0.0017193099483847618,-0.0008553978987038136
1782943345119368200,1.4563681640625,0.003242775332182646,0.0018295645713806152,-0.002037042286247015
1782943345129353000,1.46635302734375,-0.00009583542123436928,0.00006468035280704498,-0.0025763874873518944
1782943345139337000,1.4763369140625,0.0015910107176750898,0.0006447164341807365,0.0008324584923684597
1782943345149322000,1.486322021484375,-0.001836359966546297,-0.0006044991314411163,-0.0013292641378939152
1782943345159307300,1.496307373046875,0.0011668868828564882,0.001252789981663227,-0.0016805347986519337
1782943345169292300,1.506292236328125,0.0010560078080743551,-0.0007113311439752579,-0.0004913168959319592
1782943345179277000,1.516277099609375,-0.0005719824694097042,0.003210705704987049,0.0014296211302280426
1782943345189262000,1.526261962890625,-0.0014800005592405796,-0.0027970122173428535,-0.0007693823426961899
1782943345199247000,1.5362470703125,0.0015725146513432264,-0.0003812583163380623,0.0009403671137988567
1782943345209232100,1.546232177734375,0.0008504302240908146,0.001626819372177124,-0.00015119696035981178
1782943345219217200,1.556217041015625,0.0010456398595124483,0.000049695372581481934,-0.0006105918437242508
1782943345229201200,1.566201171875,-0.00011321716010570526,0.000680270604789257,0.00027355365455150604
1782943345239186200,1.576186279296875,0.0003922507166862488,0.000272541306912899,0.0023292475380003452
1782943345249171200,1.586171142578125,-0.0012331409379839897,0.0019427444785833359,0.0003885561600327492
1782943345259156200,1.59615625,0.0014657063875347376,0.0009608371183276176,-0.0004857596941292286
1782943345269141200,1.606141357421875,-0.0003028819337487221,-0.0003973552957177162,0.0003826729953289032
1782943345279126300,1.616126220703125,-0.001340182963758707,0.000032745301723480225,0.0021957531571388245
1782943345289111000,1.626111083984375,0.002117672935128212,-0.0007698601111769676,-0.001965639181435108
1782943345299096000,1.636095947265625,0.0001722336746752262,0.000001391395926475525,-0.0005986383184790611
1782943345309081000,1.6460810546875,0.0010701802093535662,0.001819881610572338,-0.00021036341786384583
1782943345319066000,1.656066162109375,0.002557289320975542,-0.0007300954312086105,-0.0022745798341929913
1782943345329050000,1.666050048828125,0.0004198907408863306,-0.00022483337670564651,-0.0015269420109689236
1782943345339035100,1.67603515625,-0.00016866764053702354,-0.002171603962779045,0.0012778989039361477
1782943345349020200,1.686020263671875,-0.00020981067791581154,0.0018585249781608582,-0.00057931337505579
1782943345359005200,1.696005126953125,-0.00031686946749687195,-0.0003670789301395416,-0.0011598831042647362
1782943345368990200,1.705990234375,0.00038950261659920216,-0.0008780015632510185,0.003277319483458996
1782943345378975200,1.715975341796875,-0.00039399927482008934,-0.003383769653737545,-0.002539556473493576
1782943345388960000,1.7259599609375,0.0009365116711705923,-0.00007426459342241287,-0.003095869440585375
1782943345398945000,1.735945068359375,-0.00017216242849826813,0.001025354489684105,-0.0005738553591072559
1782943345408930000,1.745929931640625,-0.0037375343963503838,0.0005369633436203003,-0.0015135472640395164
1782943345418914000,1.7559140625,0.0005096748936921358,0.0005028750747442245,-0.0007657315582036972
1782943345428899000,1.765899169921875,0.00028926460072398186,0.001206391490995884,-0.0017662597820162773
1782943345438884400,1.77588427734375,0.0005886040162295103,-0.002764115110039711,-0.002166266553103924
1782943345448869000,1.785869140625,0.001154482364654541,-0.0004757856950163841,0.0008061379194259644
1782943345458854100,1.795854248046875,0.0002777697518467903,-0.0001556742936372757,-0.0008735177107155323
1782943345468839200,1.805839111328125,0.00046885223127901554,-0.000010408461093902588,0.0012925099581480026
1782943345478824200,1.81582421875,-0.0010691233910620213,0.0001421906054019928,-0.0011048680171370506
1782943345488809200,1.825809326171875,0.00028626061975955963,0.0015920121222734451,0.0026073898188769817
1782943345498794000,1.8357939453125,-0.001143856905400753,-0.0009936504065990448,0.0008880528621375561
1782943345508782600,1.845782470703125,0.00008721929043531418,-0.00026954151690006256,0.0004903548397123814
1782943345518767600,1.855767578125,0.0005972145590931177,-0.00033478904515504837,0.0007215174846351147
1782943345528752600,1.865752685546875,-0.0007573934271931648,-0.0008247112855315208,-0.0003849547356367111
1782943345538737400,1.8757373046875,-0.0015427600592374802,-0.0011299103498458862,-0.0007980111986398697
1782943345548722700,1.88572265625,-0.0002348804846405983,-0.0009191017597913742,0.0005169915966689587
1782943345558707700,1.895707763671875,0.0021348001901060343,-0.00089300237596035,-0.001193024218082428
1782943345568692700,1.905692626953125,0.001155670266598463,-0.0034290077164769173,-0.0010647759772837162
1782943345578677800,1.915677734375,0.0031365295872092247,0.0002107350155711174,0.0010897214524447918
1782943345588662500,1.92566259765625,-0.0011156736873090267,0.001809384673833847,-0.00037180865183472633
1782943345598647600,1.9356474609375,-0.0005002175457775593,-0.0023787030950188637,-0.0010072393342852592
1782943345608631600,1.945631591796875,-0.0015974841080605984,-0.0013465313240885735,-0.0006596511229872704
1782943345618616600,1.955616455078125,0.0005218593869358301,0.0018471311777830124,0.0004668664187192917
1782943345628601600,1.9656015625,-0.001819872297346592,-0.000185282900929451,0.0014585941098630428
1782943345638587000,1.9755869140625,0.00018016155809164047,0.0005627991631627083,0.00011636083945631981
1782943345648571600,1.985571533203125,0.0013876936864107847,0.0019926810637116432,0.0005554771050810814
1782943345658556700,1.995556640625,-0.0003082072362303734,0.0015500634908676147,-0.0001257592812180519
1782943345668541700,2.005541748046875,0.0003864180762320757,-0.0022870656102895737,0.001843777485191822
1782943345678526700,2.015526611328125,-0.00039122486487030983,0.0009023360908031464,-0.0017237933352589607
1782943345688511500,2.025511474609375,0.0028678434900939465,-0.0017783259972929955,-0.0031850533559918404
1782943345698495700,2.035495849609375,0.001317351358011365,0.0006736461073160172,-0.0016151200979948044
1782943345708480500,2.04548046875,0.0009393105283379555,-0.00006365962326526642,-0.00032982509583234787
1782943345718465500,2.055465576171875,-0.0013033375144004822,-0.000397619791328907,0.0008507543243467808
1782943345728450600,2.065450439453125,0.00010622898116707802,-0.00023640599101781845,-0.0026398394256830215
1782943345738435800,2.075435791015625,0.0019025311339646578,-0.0006270920857787132,0.001216684002429247
1782943345748420600,2.085420654296875,-0.0005119782872498035,-0.0013441089540719986,-0.0009509897790849209
1782943345758405600,2.095405517578125,-0.0002661682665348053,-0.0004879031330347061,0.0006176121532917023
1782943345768390700,2.105390625,0.0022533119190484285,0.001921764574944973,-0.0012458432465791702
1782943345778375700,2.115375732421875,0.001834929222241044,0.0033401641994714737,-0.0007664747536182404
1782943345788360700,2.125360595703125,0.0007894269656389952,-0.0012938585132360458,-0.0004322701133787632
1782943345798344700,2.1353447265625,0.0023468434810638428,0.002106199972331524,0.0009579001925885677
1782943345808329500,2.14532958984375,0.0008837068453431129,-0.00004117004573345184,0.0028442684561014175
1782943345818314500,2.155314453125,0.0003540040925145149,0.0015367530286312103,-0.001007195096462965
1782943345828299500,2.165299560546875,-0.00017088837921619415,-0.000030035153031349182,-0.0014679664745926857
1782943345838284800,2.175284912109375,0.0018078405410051346,0.0004677092656493187,-0.00016008829697966576
1782943345848269800,2.185269775390625,0.00005754036828875542,-0.002053985372185707,-0.0006285416893661022
1782943345858254600,2.195254638671875,-0.0006029237993061543,0.0012992005795240402,-0.00021149078384041786
1782943345868239600,2.205239501953125,0.0018015073146671057,0.0026758676394820213,-0.001158595085144043
1782943345878224600,2.215224609375,-0.00013008341193199158,-0.0014064926654100418,0.0020877979695796967
1782943345888208600,2.225208740234375,-0.0005770716816186905,-0.00034554023295640945,0.0010269936174154282
1782943345898193700,2.235193603515625,0.0023822330404073,-0.0023897821083664894,-0.0015871655195951462
1782943345908178700,2.2451787109375,0.0009616152383387089,0.0004849545657634735,-0.0016177943907678127
1782943345918163500,2.25516357421875,0.0008950361516326666,-0.00188339501619339,0.0023207543417811394
1782943345928148700,2.265148681640625,-0.0012808609753847122,0.000561974011361599,-0.0003132983110845089
1782943345938133800,2.2751337890625,0.0011061301920562983,-0.002276688814163208,0.0003575519658625126
1782943345948118800,2.285118896484375,0.001475299708545208,-0.0000727623701095581,0.000591035932302475
1782943345958103600,2.295103515625,0.0006430619396269321,0.0025773486122488976,-0.0012787696905434132
1782943345968088600,2.305088623046875,-0.0021487297490239143,-0.001029903069138527,0.0014626886695623398
1782943345978072600,2.315072509765625,0.0009067675564438105,0.0014076335355639458,-0.000011201482266187668
1782943345988057600,2.3250576171875,0.001214279793202877,0.00023100897669792175,-0.00037765922024846077
1782943345998042600,2.335042724609375,-0.0010475427843630314,0.0012952079996466637,-0.0011904560960829258
1782943346008027600,2.345027587890625,0.0014043871778994799,-0.0009829998016357422,0.0002319682389497757
1782943346018012400,2.355012451171875,0.0012874742969870567,0.0005355346947908401,-0.0004471377469599247
1782943346027997700,2.364997802734375,0.0008439675439149141,-0.0007652612403035164,-0.00008479412645101547
1782943346037982700,2.374982666015625,0.00026925746351480484,0.001035834662616253,-0.0013742968440055847
1782943346047967700,2.3849677734375,-0.0018944242037832737,-0.00027126073837280273,-0.0014333035796880722
1782943346057952800,2.394952880859375,0.0005487597081810236,-0.0016190866008400917,-0.00048575131222605705
1782943346067937500,2.4049375,0.0013712721411138773,0.0006740279495716095,-0.000640425831079483
1782943346077921500,2.414921630859375,-0.00158323859795928,-0.0018213540315628052,0.001477852463722229
1782943346087906600,2.424906494140625,0.0006539223250001669,0.0002348031848669052,0.0004061073996126652
1782943346097891600,2.4348916015625,-0.002118960954248905,-0.000838717445731163,-0.0022346829064190388
1782943346107876600,2.444876708984375,0.0006579067558050156,0.0004475098103284836,-0.0010441085323691368
1782943346117861600,2.454861572265625,0.000245116651058197,0.0011050449684262276,-0.0008393106982111931
1782943346127846700,2.4648466796875,0.00133244669996202,0.0017524342983961105,0.0035055004991590977
1782943346137831700,2.474831787109375,0.0014118091203272343,0.00032684486359357834,-0.0011856579221785069
1782943346147816700,2.484816650390625,0.002048190450295806,0.001391824334859848,-0.0007068519480526447
1782943346157801700,2.4948017578125,-0.0012195082381367683,0.0005822237581014633,-0.0003063119947910309
1782943346167785700,2.50478564453125,-0.00034673232585191727,-0.0022058431059122086,-0.0006818147376179695
1782943346177770500,2.5147705078125,0.001518279081210494,-0.0023429952561855316,0.00010727997869253159
1782943346187755500,2.524755615234375,0.0009733387269079685,0.0009363526478409767,0.000005088280886411667
1782943346197740500,2.534740478515625,0.0008542954456061125,-0.00199099350720644,-0.0016122492961585522
1782943346207725600,2.5447255859375,-0.00015523796901106834,0.000008120201528072357,0.0004068673588335514
1782943346217710800,2.5547109375,0.00004849350079894066,-0.0013543535023927689,-0.00024640606716275215
1782943346227695600,2.564695556640625,-0.0017918501980602741,-0.0003290371969342232,0.002332612406462431
1782943346237680600,2.5746806640625,-0.00024268962442874908,-0.00016019307076931,0.0003890376538038254
1782943346247665700,2.584665771484375,0.00004407484084367752,-0.0007862485945224762,-0.0013423762284219265
1782943346257650700,2.594650634765625,-0.0004579313099384308,-0.00046906620264053345,0.0018568797968328
1782943346267634700,2.604634765625,0.001360348192974925,0.0009935032576322556,-0.0005012201145291328
1782943346277619700,2.61461962890625,-0.0004806951619684696,0.00037351902574300766,0.0007909457199275494
1782943346287604500,2.6246044921875,0.00018095830455422401,-0.003640773706138134,-0.0013822107575833797
1782943346297589500,2.634589599609375,0.0013879030011594296,-0.0010127667337656021,0.0002455129288136959
1782943346307574800,2.64457470703125,-0.0016038096509873867,0.0002967771142721176,0.00147933978587389
1782943346317559800,2.654559814453125,0.0002566743642091751,0.0017945393919944763,-0.0011175083927810192
1782943346327544600,2.664544677734375,0.003005014266818762,-0.0005193166434764862,-0.0016374150291085243
1782943346337529600,2.674529541015625,0.0010044474620372057,-0.0003880225121974945,-0.000888800248503685
1782943346347514600,2.6845146484375,-0.0005299416370689869,-0.00014488212764263153,0.0016433005221188068
1782943346357498600,2.69449853515625,0.001875957939773798,-0.000188557431101799,0.00015086540952324867
1782943346367483600,2.704483642578125,-0.0004082378000020981,0.0006666108965873718,0.0019984631799161434
1782943346377468700,2.71446875,0.0010604956187307835,-0.0012964056804776192,0.00035848841071128845
1782943346387453400,2.724453369140625,0.002324545755982399,-0.0023597553372383118,-0.0020831916481256485
1782943346397438500,2.7344384765625,0.00020626746118068695,0.0007521482184529305,-0.0017313873395323753
1782943346407423700,2.744423828125,-0.00015904521569609642,0.0009577982127666473,0.0031028673984110355
1782943346417408800,2.75440869140625,0.002491598716005683,-0.002118152566254139,-0.0017358297482132912
1782943346427393800,2.764393798828125,-0.00017325347289443016,0.001519002951681614,0.0029444973915815353
1782943346437378600,2.774378662109375,-0.0011133491061627865,-0.0009936895221471786,-0.0005583586171269417
1782943346447363600,2.784363525390625,-0.001336301676928997,0.0006965724751353264,-0.0016930210404098034
1782943346457347600,2.79434765625,0.0005891639739274979,-0.0009956005960702896,-0.00004878593608736992
1782943346467332600,2.80433251953125,-0.002214706502854824,-0.00047691166400909424,0.0004011811688542366
1782943346477317600,2.814317626953125,-0.0006178752519190311,0.0030746804550290108,0.00004085572436451912
1782943346487302700,2.824302734375,-0.0004535159096121788,-0.00038954708725214005,0.0008400660008192062
1782943346497287700,2.83428759765625,0.0003254585899412632,-0.0004968727007508278,0.001694940496236086
1782943346507268600,2.8442685546875,0.0001801629550755024,0.0004269871860742569,-0.0015301229432225227
1782943346517253600,2.854253662109375,0.0019405123312026262,0.0005295192822813988,0.0029511782340705395
1782943346527238700,2.86423876953125,-0.00037401728332042694,0.0017067668959498405,0.00018586404621601105
1782943346537224000,2.874223876953125,0.0007953767199069262,-0.0014655906707048416,0.001219969242811203
1782943346547208700,2.884208740234375,-0.002557171508669853,-0.0025396421551704407,0.0009214938618242741
1782943346557192700,2.894192626953125,0.0015504881739616394,0.001704903319478035,0.0007664980366826057
1782943346567177700,2.904177734375,0.0025042530614882708,0.0004586493596434593,-0.000887745525687933
1782943346577162800,2.914162841796875,-0.00002095615491271019,-0.0016516391187906265,0.0020981901325285435
1782943346587147800,2.924147705078125,-0.0002985987812280655,-0.001047820784151554,-0.00035175587981939316
1782943346597132800,2.9341328125,-0.0013449550606310368,0.00044940877705812454,0.002248820848762989
1782943346607117600,2.94411767578125,-0.0014614211395382881,-0.00038505252450704575,-0.0004955981858074665
1782943346617102600,2.9541025390625,-0.0013192081823945045,-0.00012512784451246262,-0.001260192133486271
1782943346627088000,2.964087890625,0.0010425059590488672,0.0005114199593663216,-0.0020763687789440155
1782943346637073000,2.974072998046875,0.0017490426544100046,-0.002392757683992386,0.0019346182234585285
1782943346647057700,2.9840576171875,0.00045704725198447704,0.0014964407309889793,0.0030644587241113186
1782943346657041700,2.994041748046875,0.0009089857339859009,-0.0032996460795402527,-0.0009369412437081337
1782943346667026700,3.004026611328125,0.000005157198756933212,0.001509302295744419,-0.001500796526670456
1782943346677011700,3.01401171875,-0.0004084315150976181,-0.00037514977157115936,0.0005807308480143547
1782943346686996700,3.023996826171875,-0.0015787654556334019,0.00025862548500299454,0.0006451942026615143
1782943346696981800,3.033981689453125,-0.0013068565167486668,-0.002796286717057228,0.00001695426180958748
1782943346706966500,3.043966552734375,0.0017567214090377092,-0.00018692202866077423,-0.00027599604800343513
1782943346716951600,3.05395166015625,0.001556451665237546,-0.00009477697312831879,-0.0015372689813375473
1782943346726936800,3.063936767578125,0.0004930163267999887,-0.001073402352631092,0.0001515350304543972
1782943346736921900,3.073921875,0.0016490945126861334,-0.00061001256108284,-0.000054327305406332016
1782943346746905900,3.08390576171875,0.0022679753601551056,0.0004446776583790779,0.00027169985696673393
1782943346756891000,3.093890869140625,0.0012511804234236479,-0.0001308312639594078,0.0006109867244958878
1782943346766875600,3.103875732421875,0.002527950331568718,-0.0017043566331267357,0.0007094964385032654
1782943346776860700,3.113860595703125,0.0015377870295196772,-0.0009107347577810287,-0.0032876417972147465
1782943346786845700,3.123845703125,-0.0015375814400613308,-0.002403123304247856,0.0004060477949678898
1782943346796830700,3.133830810546875,0.08129657804965973,-0.038018107414245605,-0.011148875579237938
1782943346806815700,3.143815673828125,0.04662285000085831,-0.02401532232761383,-0.014612685889005661
1782943346816800800,3.15380078125,-0.002888508141040802,0.022595588117837906,0.0060302745550870895
1782943346826785800,3.163785888671875,-0.014150241389870644,-0.07294867932796478,-0.017190687358379364
1782943346836770800,3.173770751953125,0.0028753476217389107,0.07177015393972397,0.014373630285263062
1782943346846754800,3.1837548828125,0.0031553125008940697,0.010057911276817322,-0.0002757166512310505
1782943346856739800,3.19373974609375,-0.0021286653354763985,-0.003696783445775509,0.0019767852500081062
1782943346866724600,3.203724609375,-0.006781215779483318,-0.0012507261708378792,-0.0009299870580434799
1782943346876709600,3.213709716796875,-0.007247268222272396,-0.011316675692796707,-0.006876825354993343
1782943346886694700,3.223694580078125,-0.011642193421721458,-0.005036531016230583,-0.00017206789925694466
1782943346896679700,3.2336796875,-0.002687846776098013,-0.004742784425616264,-0.0017521213740110397
1782943346906664700,3.243664794921875,-0.0015674927271902561,-0.0009669717401266098,0.003548707813024521
1782943346916649700,3.253649658203125,-0.000784789677709341,-0.005997416563332081,-0.00043085357174277306
1782943346926634800,3.263634765625,-0.0024739098735153675,-0.001820671372115612,0.001042650081217289
1782943346936618800,3.27361865234375,0.00047420943155884743,0.000011317431926727295,0.0006559588946402073
1782943346946603800,3.283603759765625,0.0007454701699316502,0.0006512226536870003,-0.0009624888189136982
1782943346956588800,3.2935888671875,-0.0012654829770326614,0.0005601430311799049,0.0004692268557846546
1782943346966573800,3.30357373046875,0.000014361459761857986,0.0011999253183603287,-0.0015825754962861538
1782943346976558600,3.31355859375,-0.00907900184392929,0.19665251672267914,0.07250151038169861
1782943346986543600,3.323543701171875,-0.012741468846797943,0.030718306079506874,0.00015082582831382751
1782943346996528600,3.333528564453125,0.008180323988199234,-0.10926835983991623,-0.041077304631471634
1782943347006514000,3.343513916015625,-0.00156731391325593,0.12016821652650833,0.043496958911418915
1782943347016498700,3.353498779296875,0.0005581548903137445,-0.03802541270852089,-0.01503240130841732
1782943347026483700,3.363483642578125,-0.002464878838509321,0.014207658357918262,0.004325199872255325
1782943347036467700,3.3734677734375,-0.003048643935471773,-0.010008730925619602,-0.0049058482982218266
1782943347046452700,3.38345263671875,-0.0032920879311859608,-0.0021017668768763542,-0.0004351944662630558
1782943347056437800,3.393437744140625,-0.0009178798645734787,-0.0030061760917305946,0.0008500469848513603
1782943347066422800,3.4034228515625,0.0002856575883924961,0.00045260321348905563,0.00020641740411520004
1782943347076407600,3.413407470703125,0.0008182898163795471,0.0008928235620260239,0.0020288187079131603
1782943347086392600,3.423392578125,0.0007966866251081228,0.001254253089427948,-0.0009304801933467388
1782943347096377600,3.433377685546875,0.001139968167990446,-0.00255673099309206,-0.0002979794517159462
1782943347106363000,3.44336279296875,-0.0026449779979884624,-0.0007092179730534554,-0.001319024246186018
1782943347116348000,3.453347900390625,-0.0015275157056748867,-0.00012571923434734344,-0.00181250786408782
1782943347126332700,3.463332763671875,-0.00014582928270101547,0.001925465650856495,0.0006654900498688221
1782943347136316700,3.473316650390625,-0.0017381333746016026,0.002433064393699169,0.0009099682793021202
1782943347146301700,3.4833017578125,0.0002001151442527771,0.0007896274328231812,0.001200785394757986
1782943347156286700,3.49328662109375,0.0005391356535255909,0.0011305119842290878,-0.0013462617062032223
1782943347166271700,3.503271728515625,-0.0006844028830528259,-0.002583547495305538,0.00022903084754943848
1782943347176256800,3.5132568359375,-0.0003371266648173332,-0.0004495568573474884,-0.0007419576868414879
1782943347186241500,3.523241455078125,-0.002058949787169695,-0.0003319457173347473,-0.00008127791807055473
1782943347196226800,3.533226806640625,-0.00021950434893369675,-0.0020989524200558662,0.0027707014232873917
1782943347206211800,3.5432119140625,-0.0011429241858422756,-0.005482173524796963,-0.0007991804741322994
1782943347216196900,3.55319677734375,0.0004906586837023497,-0.003987342119216919,0.00046608736738562584
1782943347226181600,3.563181640625,0.0014784249942749739,-0.005332238040864468,-0.0002734726294875145
1782943347236166000,3.573165771484375,0.0006280776578933001,-0.0059122745878994465,-0.001970172394067049
1782943347246150700,3.583150634765625,0.0006140575278550386,-0.00786209013313055,-0.0009882827289402485
1782943347256135700,3.5931357421875,0.002460160758346319,-0.008831214159727097,-0.0034069656394422054
1782943347266120700,3.60312060546875,0.0004960794467478991,-0.004947526380419731,-0.0035270736552774906
1782943347276105700,3.613105712890625,-0.00044534774497151375,-0.0059020034968853,-0.0029723369516432285
1782943347286090500,3.623090576171875,-0.00007152697071433067,-0.007773767225444317,-0.0034048850648105145
1782943347296075800,3.63307568359375,0.0019215825013816357,-0.014533935114741325,-0.007553823757916689
1782943347306060800,3.643060791015625,0.0016898196190595627,-0.014326186850667,-0.005266354884952307
1782943347316045800,3.6530458984375,0.0026586775202304125,-0.0063601392321288586,-0.0012516402639448643
1782943347326030800,3.66303076171875,0.0035898257046937943,-0.0058133965358138084,-0.0005585723556578159
1782943347336014800,3.673014892578125,-0.0014938823878765106,-0.006734583992511034,-0.00271972781047225
1782943347345999600,3.68299951171875,0.0008721416816115379,-0.00490687508136034,-0.0028473730199038982
1782943347355984600,3.692984619140625,0.0015603024512529373,-0.00343254953622818,-0.0006771632470190525
1782943347365969700,3.7029697265625,-0.000267611350864172,-0.006168981082737446,-0.0014811367727816105
1782943347375954700,3.71295458984375,-0.0014628381468355656,-0.0027662599459290504,-0.0026417416520416737
1782943347385939700,3.722939697265625,0.0005461226683109999,-0.005788457579910755,-0.0014938130043447018
1782943347395924700,3.7329248046875,-0.0005577574484050274,-0.0012443065643310547,-0.0011657108552753925
1782943347405909800,3.74290966796875,-0.001398100983351469,-0.00038975104689598083,-0.001089588738977909
1782943347415894800,3.752894775390625,-0.0009424341842532158,-0.000552469864487648,-0.0011276723816990852
1782943347425879800,3.7628798828125,0.0010350553784519434,-0.0010434091091156006,0.003379177302122116
1782943347435863800,3.77286376953125,-0.0012962757609784603,-0.0007006600499153137,0.0017216256819665432
1782943347445848600,3.7828486328125,0.0001344955526292324,-0.0015440937131643295,-0.00035967398434877396
1782943347455833600,3.79283349609375,0.000042084138840436935,-0.0043832892552018166,-0.0033538658171892166
1782943347465818600,3.802818603515625,0.00022060656920075417,-0.00004751700907945633,-0.0023842263035476208
1782943347475803600,3.8128037109375,-0.00013066409155726433,0.000004680827260017395,0.0008046431466937065
1782943347485789000,3.822788818359375,0.0005995139945298433,0.001857786439359188,0.0007396736182272434
1782943347495773700,3.832773681640625,-0.000803705770522356,0.003922002390027046,0.0009386115707457066
1782943347505758000,3.842758056640625,-0.0009227488189935684,0.0017643095925450325,-0.0000893683172762394
1782943347515743200,3.8527431640625,-0.002664456143975258,-0.004299175925552845,-0.0019988552667200565
1782943347525727000,3.86272705078125,-0.0009372178465127945,-0.007286052219569683,-0.0015753963962197304
1782943347535712300,3.872712158203125,-0.0025915736332535744,-0.008970768190920353,-0.0008472884073853493
1782943347545697300,3.882697265625,0.00003051105886697769,-0.015126204118132591,-0.003460885491222143
1782943347555682300,3.892682373046875,-0.0018882965669035912,-0.014615942724049091,-0.004904851783066988
1782943347565667000,3.9026669921875,-0.0006390698254108429,-0.020781349390745163,0.0009916648268699646
1782943347575652000,3.912652099609375,-0.05868558958172798,-0.21956822276115417,0.027110617607831955
1782943347585637000,3.92263720703125,-0.1680530309677124,-0.29878878593444824,-0.05353523790836334
1782943347595622100,3.9326220703125,-0.18668530881404877,-0.09915133565664291,-0.031212886795401573
1782943347605607000,3.94260693359375,-0.10358943045139313,0.1878756731748581,0.03553666174411774
1782943347615592200,3.95259228515625,-0.02722807787358761,0.06183464452624321,0.0036490357015281916
1782943347625577200,3.9625771484375,0.0005900806281715631,-0.012191647663712502,-0.009399276226758957
1782943347635561200,3.972561279296875,0.0042332848533988,0.011179189197719097,0.005024404264986515
1782943347645546200,3.982546142578125,0.008506173267960548,0.0073974281549453735,0.0035242747981101274
1782943347655531300,3.99253125,0.011746973730623722,0.022739900276064873,-0.002627094741910696
1782943347665516000,4.00251611328125,0.008108661510050297,0.006717728450894356,-0.004525214899331331
1782943347675501000,4.0125009765625,0.008073774166405201,0.0007698237895965576,-0.005738817621022463
1782943347685486000,4.022486083984375,0.004755680449306965,0.0021539460867643356,-0.003587770741432905
1782943347695471000,4.03247119140625,0.0033881471026688814,0.0034602265805006027,-0.0050386604852974415
1782943347705456400,4.042456298828125,0.0037446918431669474,0.0013950830325484276,-0.003365985583513975
1782943347715441200,4.052441162109375,0.0024458682164549828,0.0012318305671215057,-0.0013126884587109089
1782943347725426200,4.06242626953125,0.0009836098179221153,0.002133667469024658,-0.0040556942112743855
1782943347735410200,4.07241015625,0.0019988068379461765,0.005962228402495384,-0.0017754952423274517
1782943347745395200,4.082395263671875,0.002349019981920719,0.0034711631014943123,0.0012652338482439518
1782943347755380200,4.092380126953125,0.0005583104211837053,0.004736964590847492,0.002090014982968569
1782943347765365200,4.102365234375,0.004734545014798641,0.004820635542273521,0.0041573187336325645
1782943347775350000,4.11235009765625,0.0035449110437184572,0.0032589565962553024,0.001623587217181921
1782943347785335000,4.1223349609375,0.0002807942219078541,0.00032718945294618607,0.0017945398576557636
1782943347795320000,4.132320068359375,-0.002366121858358383,0.0006747320294380188,0.0005524419248104095
1782943347805305300,4.142305419921875,-0.0017130528576672077,-0.005512667819857597,0.002134614624083042
1782943347815290000,4.1522900390625,-0.004935743752866983,-0.006406691391021013,-0.00044359173625707626
1782943347825274000,4.162274169921875,-0.004804191179573536,-0.004819504916667938,-0.003762089181691408
1782943347835259100,4.172259033203125,-0.0017274417914450169,-0.006798233836889267,0.0011961841955780983
1782943347845244200,4.182244140625,-0.0009205504320561886,-0.002031516283750534,-0.003703624475747347
1782943347855229200,4.192229248046875,-0.0009120283648371696,0.00003483053296804428,0.002581169828772545
1782943347865214200,4.202214111328125,-0.0009509413503110409,0.0013139862567186356,0.0009678327478468418
1782943347875199000,4.212198974609375,0.0024911945220083,0.0015281038358807564,0.0003952528350055218
1782943347885184000,4.22218408203125,0.000462124589830637,0.004570175893604755,-0.004500900395214558
1782943347895169300,4.232169189453125,-0.0007490809075534344,0.0011213822290301323,-0.00011973408982157707
1782943347905154300,4.242154296875,-0.0001627202145755291,0.001369347795844078,0.0006683743558824062
1782943347915139000,4.25213916015625,0.0016500938218086958,0.0009850533679127693,0.0011573303490877151
1782943347925123300,4.262123291015625,0.0024441818241029978,0.003917871043086052,-0.0014069308526813984
1782943347935108000,4.272108154296875,0.0013765206094831228,0.0036677997559309006,-0.00020158477127552032
1782943347945093000,4.282093017578125,0.000522558344528079,0.0027415575459599495,0.001360205002129078
1782943347955078100,4.292078125,0.0010868823155760765,0.0031756525859236717,0.0014414312317967415
1782943347965063200,4.302063232421875,0.00047834753058850765,-0.0026929667219519615,0.001951876562088728
1782943347975048200,4.312048095703125,0.00014758296310901642,0.0011145547032356262,0.0004903334192931652
1782943347985033000,4.322032958984375,0.0014188946224749088,-0.001187833957374096,0.001877788919955492
1782943347995018200,4.332018310546875,-0.0021745087578892708,-0.0005135219544172287,0.0008503412827849388
1782943348005003300,4.342003173828125,0.0010278886184096336,-0.0013079559430480003,-0.001897281501442194
1782943348014988300,4.35198828125,-0.0010752095840871334,0.0007938109338283539,0.003645289223641157
1782943348024973000,4.36197314453125,-0.0009509031660854816,-0.0005211811512708664,0.0019033271819353104
1782943348034957000,4.37195703125,-0.00020255474373698235,-0.002365419641137123,0.0019038598984479904
1782943348044942000,4.381942138671875,-0.0015174029394984245,0.0003535933792591095,0.0029053506441414356
1782943348054927000,4.391927001953125,0.00048183207400143147,-0.0017678812146186829,0.0007351408712565899
1782943348064912100,4.401912109375,-0.0007507014088332653,-0.0021667256951332092,0.0027918373234570026
1782943348074897200,4.411897216796875,0.00006316090002655983,-0.001715320162475109,0.0012306924909353256
1782943348084882200,4.421882080078125,0.0009158453904092312,-0.0011967197060585022,-0.0007980926893651485
1782943348094867200,4.4318671875,-0.0002884361892938614,-0.0008350620046257973,0.0014978181570768356
1782943348104855000,4.44185498046875,0.000378988916054368,0.00006909482181072235,0.0006226305849850178
1782943348114840000,4.451840087890625,-0.00160266924649477,-0.0011567585170269012,-0.0002719252370297909
1782943348124825300,4.461825439453125,0.0006558704189956188,-0.0024264277890324593,0.0009454214014112949
1782943348134810000,4.47181005859375,0.002132060704752803,-0.0007326574996113777,0.0023646201007068157
1782943348144795100,4.481795166015625,0.00007869815453886986,0.0000691460445523262,-0.0016615181230008602
1782943348154780200,4.4917802734375,-0.00040892651304602623,0.0017384150996804237,0.0011297413147985935
1782943348164764200,4.50176416015625,-0.0003481106832623482,0.0015979530289769173,0.0005430290475487709
1782943348174749200,4.511749267578125,0.0003448436036705971,-0.0001400252804160118,0.003174764569848776
1782943348184734200,4.521734130859375,0.001269069965928793,0.0010633822530508041,-0.00024310685694217682
1782943348194719000,4.531718994140625,0.0030105109326541424,0.00038028135895729065,0.0006240187212824821
1782943348204704000,4.5417041015625,-0.00012459931895136833,-0.0011244211345911026,0.000003842171281576157
1782943348214689300,4.551689208984375,0.0014389422722160816,0.00031874608248472214,0.002671530470252037
1782943348224674300,4.56167431640625,-0.0004908144474029541,0.00028043799102306366,-0.001393779180943966
1782943348234659000,4.5716591796875,0.0015848532784730196,0.001036243513226509,0.0009551285766065121
1782943348244644000,4.58164404296875,-0.0009018774144351482,-0.0011636307463049889,-0.0006899968720972538
1782943348254629000,4.591629150390625,0.00006005633622407913,0.0028337743133306503,-0.0011038524098694324
1782943348264613000,4.601613037109375,-0.0005383403040468693,0.0027220342308282852,-0.0010046525858342648
1782943348274598100,4.61159814453125,0.00018790364265441895,-0.0010279621928930283,0.0010952502489089966
1782943348284583200,4.621583251953125,0.0003730251919478178,-0.0006498312577605247,-0.0024938713759183884
1782943348294568000,4.63156787109375,0.0016880941111594439,0.0016016056761145592,-0.002484283410012722
1782943348304553000,4.641552978515625,-0.0005436185747385025,0.0024379510432481766,-0.0020458060316741467
1782943348314538200,4.651538330078125,0.0005738437175750732,0.00116629246622324,-0.0004428494721651077
1782943348324523300,4.661523193359375,0.0011893813498318195,-0.002996259368956089,0.002358541823923588
1782943348334508300,4.67150830078125,-0.0005512605421245098,0.0003428114578127861,-0.0007118168286979198
1782943348344493000,4.6814931640625,0.00021025119349360466,-0.0016300072893500328,0.0002990500070154667
1782943348354478000,4.69147802734375,-0.0007367688231170177,-0.0015240134671330452,-0.0011979122646152973
1782943348364462000,4.701462158203125,0.0004049993585795164,0.00023684930056333542,-0.0015460043214261532
1782943348374447000,4.711447021484375,-0.00025493185967206955,-0.0023940876126289368,-0.0012685027904808521
1782943348384432000,4.72143212890625,-0.00037014298141002655,-0.0010565109550952911,-0.0013854922726750374
1782943348394417200,4.731417236328125,0.0025111311115324497,0.00015203189104795456,0.001942926086485386
1782943348404402200,4.741402099609375,-0.0021434035152196884,-0.002443261444568634,0.0001471368595957756
1782943348414387200,4.75138720703125,-0.0006448430940508842,0.00043694768100976944,-0.0016102828085422516
1782943348424372200,4.761372314453125,-0.0001232922077178955,0.0001865345984697342,-0.000002250541001558304
1782943348434357200,4.771357177734375,0.000258871354162693,-0.0013282708823680878,0.0007484946399927139
1782943348444342000,4.781342041015625,0.002183374483138323,-0.0015727560967206955,0.0006944518536329269
1782943348454327000,4.7913271484375,-0.001342384610325098,-0.0005256012082099915,0.002524842508137226
1782943348464312000,4.80131201171875,0.000013368204236030579,-0.002280564047396183,0.0004973914474248886
1782943348474296000,4.811296142578125,0.0010669147595763206,-0.001974300481379032,0.0014792988076806068
1782943348484281000,4.821281005859375,0.00013266783207654953,0.002219432033598423,-0.0002219025045633316
1782943348494266000,4.83126611328125,0.00029059313237667084,-0.0012056585401296616,0.00025613512843847275
1782943348504252700,4.841252685546875,-0.00044966768473386765,-0.0017866259440779686,-0.00037970347329974174
1782943348514238000,4.851238037109375,-0.00020731985569000244,0.0008496372029185295,0.0030464534647762775
1782943348524223000,4.861222900390625,0.001381969079375267,-0.00015770737081766129,0.0018437067046761513
1782943348534207700,4.871207763671875,0.0015209862031042576,-0.004417966119945049,-0.0016692695207893848
1782943348544192800,4.88119287109375,0.001615708228200674,-0.0018891803920269012,0.001287954393774271
1782943348554177800,4.891177734375,0.0008143631275743246,-0.0007171230390667915,0.001007789745926857
1782943348564162800,4.901162841796875,-0.00022727623581886292,0.0004653194919228554,-0.0017237295396625996
1782943348574146800,4.911146728515625,-0.0012760292738676071,0.0026467135176062584,-0.0027778088115155697
1782943348584131800,4.9211318359375,-0.0004005124792456627,0.0003328593447804451,-0.00016545690596103668
1782943348594116600,4.93111669921875,0.00022426480427384377,-0.00222590658813715,-0.0024725529365241528
1782943348604101600,4.9411015625,-0.00027963053435087204,0.0004224255681037903,0.0010705981403589249
1782943348614087000,4.9510869140625,-0.00018588732928037643,-0.002515573985874653,-0.00013421615585684776
1782943348624072000,4.961072021484375,-0.0008170483633875847,-0.0013930713757872581,0.0013272939249873161
1782943348634056700,4.971056640625,-0.0022226646542549133,0.00021388009190559387,-0.000989655964076519
1782943348644041700,4.981041748046875,0.0015148669481277466,0.00018097274005413055,-0.001352155115455389
1782943348654026800,4.99102685546875,-0.0011293855495750904,-0.002366607077419758,-0.001918876077979803
1782943348664011800,5.00101171875,-0.002211622893810272,-0.0006665987893939018,-0.001654850784689188
1782943348673995800,5.010995849609375,-0.00030400045216083527,-0.001986994408071041,0.00048819510266184807
1782943348683980800,5.020980712890625,-0.0006256313063204288,-0.0008696150034666061,-0.002830051351338625
1782943348693965600,5.030965576171875,0.00035521085374057293,-0.0014752177521586418,-0.00201672175899148
1782943348703950800,5.040950927734375,0.0046417550183832645,-0.0008488930761814117,0.002574147190898657
1782943348713936000,5.050935791015625,0.00005845492705702782,-0.002186066471040249,-0.0009619980119168758
1782943348723921000,5.0609208984375,-0.0007296577095985413,-0.000393526628613472,-0.0008900328539311886
1782943348733906000,5.070906005859375,-0.002717974130064249,-0.001687023788690567,0.0004071933217346668
1782943348743890700,5.080890625,0.00009695999324321747,0.0002889977768063545,0.0014219963923096657
1782943348753875700,5.090875732421875,0.0005728669930249453,0.000966239720582962,-0.002617485821247101
1782943348763860700,5.10086083984375,-0.0001607108861207962,0.0007943445816636086,0.000228778924793005
1782943348773844700,5.1108447265625,0.0007255892269313335,-0.0004770476371049881,0.000749426893889904
1782943348783829800,5.120829833984375,0.00029324693605303764,-0.0014556217938661575,-0.001488739624619484
1782943348793814800,5.130814697265625,0.0002469080500304699,-0.0006955564022064209,-0.0016826177015900612
1782943348803799800,5.1407998046875,-0.00034470995888113976,0.0028403159230947495,0.0005909018218517303
1782943348813784800,5.150784912109375,0.0003612940199673176,-0.0006918348371982574,0.00023989705368876457
1782943348823769900,5.160769775390625,0.0004116198979318142,-0.0030658748000860214,-0.0006249593570828438
1782943348833755000,5.1707548828125,-0.0010248892940580845,0.001481207087635994,-0.001601540483534336
1782943348843739600,5.18073974609375,0.0022270758636295795,-0.0007526548579335213,-0.0008390592411160469
1782943348853724700,5.190724609375,0.0009689985308796167,-0.0006762221455574036,-0.001387137919664383
1782943348863709700,5.200709716796875,0.001229219138622284,0.0012306729331612587,0.0016387645155191422
1782943348873693700,5.210693603515625,-0.00006987107917666435,-0.004194985143840313,0.0010110572911798954
1782943348883678700,5.2206787109375,0.002110143657773733,-0.0003924993798136711,-0.00012916605919599533
1782943348893664000,5.2306640625,-0.00007950747385621071,0.0004932675510644913,-0.0005691205151379108
1782943348903648800,5.240648681640625,0.0002692793495953083,-0.0017145220190286636,-0.0015253112651407719
1782943348913633800,5.2506337890625,0.0001856563612818718,-0.0002449899911880493,-0.00012635299935936928
1782943348923618800,5.260618896484375,-0.00010808371007442474,0.000859363004565239,-0.0010785316117107868
1782943348933603800,5.270603759765625,0.001081816852092743,-0.00042161718010902405,0.0013630539178848267
1782943348943588600,5.280588623046875,0.0009048036299645901,0.00009659305214881897,-0.0026335055008530617
1782943348953573600,5.29057373046875,0.00017163529992103577,0.0007048584520816803,-0.0014294907450675964
1782943348963558700,5.30055859375,0.003579001873731613,0.0011167973279953003,0.0009320732206106186
1782943348973544000,5.3105439453125,-0.0009821942076086998,-0.0003013359382748604,0.0013017202727496624
1782943348983527700,5.320527587890625,-0.0007849191315472126,0.0005271080881357193,-0.0018703388050198555
1782943348993513000,5.330512939453125,-0.002569503616541624,-0.0009679906070232391,-0.0006444854661822319
1782943349003497700,5.340497802734375,-0.0011074496433138847,-0.0024266857653856277,0.00032566487789154053
1782943349013482800,5.350482666015625,-0.00013433070853352547,0.0008788295090198517,0.0001461678184568882
1782943349023467800,5.3604677734375,-0.0012427205219864845,-0.000691218301653862,-0.0004063257947564125
1782943349033452800,5.370452880859375,-0.0011961152777075768,-0.0018057506531476974,0.0009119389578700066
1782943349043437800,5.380437744140625,-0.0022332346998155117,0.0008692536503076553,-0.0019166343845427036
1782943349053422600,5.390422607421875,-0.000328275840729475,0.0008562039583921432,-0.00009796116501092911
1782943349063407600,5.40040771484375,-0.0005292934365570545,-0.0034003620967268944,-0.002187451347708702
1782943349073393000,5.410392822265625,0.0013706055469810963,0.00013391952961683273,-0.0010518794879317284
1782943349083377000,5.420376953125,-0.0010455106385052204,0.002284516580402851,-0.00023862486705183983
1782943349093362000,5.43036181640625,-0.00250172708183527,0.00251887459307909,-0.0015614163130521774
1782943349103347000,5.440346923828125,0.0026477212086319923,0.001192718744277954,0.00030454760417342186
1782943349113331700,5.450331787109375,0.001564613776281476,0.0005804579704999924,-0.0017474177293479443
1782943349123316700,5.460316650390625,0.0009625316597521305,-0.00318292248994112,-0.00045262230560183525
1782943349133301800,5.4703017578125,0.0007633271161466837,-0.00018446985632181168,0.0007529910653829575
1782943349143286800,5.480286865234375,0.0016743575688451529,-0.0011629313230514526,-0.0028556259348988533
1782943349153271600,5.490271484375,0.0011949886102229357,0.00018116552382707596,-0.0038710888475179672
1782943349163256800,5.5002568359375,0.001292019383981824,0.0005709100514650345,-0.0019048000685870647
1782943349173241900,5.510241943359375,-0.0013884520158171654,0.0012952890247106552,0.0008033681660890579
1782943349183225900,5.520225830078125,0.00003201700747013092,-0.0013959091156721115,0.000017599202692508698
1782943349193211000,5.5302109375,-0.0015024966560304165,-0.0006827143952250481,-0.00021835695952177048
1782943349203196000,5.54019580078125,-0.0025690821930766106,-0.0008264770731329918,0.0008130874484777451
1782943349213180700,5.5501806640625,0.0008759829215705395,-0.0007031727582216263,0.00021840352565050125
1782943349223165700,5.560165771484375,-0.0012184316292405128,0.00010977592319250107,0.0003078770823776722
1782943349233150700,5.570150634765625,0.0024364907294511795,-0.0022836066782474518,0.0006125429645180702
1782943349243135700,5.5801357421875,0.0008669178932905197,-0.00006853602826595306,-0.0006425012834370136
1782943349253120800,5.590120849609375,-0.0007086084224283695,0.0018350910395383835,0.0005247620865702629
1782943349263105800,5.600105712890625,-0.00012195436283946037,-0.002134743146598339,0.003508569672703743
1782943349273090800,5.6100908203125,-0.00014112889766693115,0.0003688950091600418,-0.0003026798367500305
1782943349283074800,5.62007470703125,-0.0022796224802732468,-0.00033644214272499084,0.0003966097719967365
1782943349293059800,5.630059814453125,0.0005835420452058315,-0.0006030248478055,0.0007108626887202263
1782943349303044900,5.640044921875,0.0005370031576603651,0.0017583360895514488,0.0033582914620637894
1782943349313030000,5.65002978515625,0.0005338073242455721,0.000725029967725277,0.0007454641163349152
1782943349323014700,5.6600146484375,-0.0014985878951847553,-0.0011449996381998062,0.0018810541369020939
1782943349332999700,5.669999755859375,0.0021933524403721094,0.0015642344951629639,0.000217377208173275
1782943349342984700,5.679984619140625,0.0003128955140709877,0.001832425594329834,0.00002626795321702957
1782943349352970000,5.689969970703125,0.0009997247252613306,-0.0005713431164622307,-0.0010176911018788815
1782943349362954800,5.699954833984375,-0.00033095572143793106,-0.0009088711813092232,0.001302824355661869
1782943349372939800,5.709939697265625,0.00040514208376407623,-0.0011909008026123047,0.001590711995959282
1782943349382924800,5.7199248046875,0.0015414704103022814,-0.0013583200052380562,0.0015674321912229061
1782943349392908800,5.72990869140625,0.0000881832093000412,0.00004889443516731262,0.0006795343942940235
1782943349402893800,5.739893798828125,-0.000979448202997446,0.00016847532242536545,0.0011257627047598362
1782943349412878800,5.74987890625,-0.0019365884363651276,-0.003452358767390251,0.00016995426267385483
1782943349422863600,5.759863525390625,0.00022237421944737434,0.00007404200732707977,0.0022446662187576294
1782943349432848600,5.7698486328125,0.0002250373363494873,0.0012556863948702812,-0.0025389036163687706
1782943349442833700,5.779833740234375,-0.0002966560423374176,0.0003642607480287552,-0.001615264918655157
1782943349452819000,5.78981884765625,0.00008497480303049088,0.0008638696745038033,0.0005746530368924141
1782943349462804000,5.799803955078125,0.0009544531349092722,0.002029063180088997,-0.0002657109871506691
1782943349472788700,5.809788818359375,0.0000905236229300499,0.0017845844849944115,0.0029825465753674507
1782943349482773800,5.819773681640625,-0.0004131975583732128,-0.00030014850199222565,-0.00004912354052066803
1782943349492757800,5.8297578125,0.0004083877429366112,0.000551530160009861,0.0011945730075240135
1782943349502742800,5.83974267578125,0.0005962762515991926,-0.0012788353487849236,0.0035339118912816048
1782943349512726800,5.849726806640625,-0.0009273183532059193,-0.0006383443251252174,0.0013820775784552097
1782943349522712000,5.859712158203125,-0.0011973744258284569,0.000414527952671051,-0.0019893446005880833
1782943349532697000,5.869697021484375,0.0011744366493076086,0.000475248321890831,0.00047780806198716164
1782943349542681900,5.879681884765625,-0.0022019599564373493,-0.0017846645787358284,0.0007861750200390816
1782943349552667000,5.8896669921875,0.0010707986075431108,-0.0029644444584846497,0.001156087964773178
1782943349562652000,5.89965185546875,-0.0008810213766992092,-0.0020928354933857918,-0.0001796633005142212
1782943349572637000,5.909636962890625,-0.001457595732063055,-0.001209997572004795,-0.002611395437270403
1782943349582621700,5.91962158203125,0.000058514997363090515,0.000962400808930397,0.0009012110531330109
1782943349592606000,5.92960595703125,0.0013197881635278463,0.0002633212134242058,-0.00036032870411872864
1782943349602590700,5.9395908203125,0.001013211440294981,-0.0010311510413885117,-0.001539922785013914
1782943349612576000,5.949575927734375,-0.00136925233528018,0.0016242871060967445,-0.0004320479929447174
1782943349622561000,5.95956103515625,-0.0009714243933558464,0.00035470258444547653,0.0005323071964085102
1782943349632546000,5.969546142578125,0.0007183512207120657,-0.0022530648857355118,-0.0012264437973499298
1782943349642530800,5.97953076171875,0.0002461266703903675,-0.0009340550750494003,-0.0012561571784317493
1782943349652515800,5.989515869140625,-0.0002305791713297367,-0.0010672137141227722,0.0013076676987111568
1782943349662500900,5.9995009765625,0.0009214398451149464,-0.001083681359887123,-0.0007184953428804874
1782943349672486000,6.00948583984375,0.00003673788160085678,0.0002420404925942421,-0.000824222806841135
1782943349682471000,6.019470947265625,-0.00008502881973981857,-0.0007629143074154854,0.0005149361677467823
1782943349692456000,6.0294560546875,0.0007834280841052532,-0.00006490014493465424,-0.0035703531466424465
1782943349702439700,6.039439697265625,0.0009349996689707041,0.00040392111986875534,-0.0006501968018710613
1782943349712425000,6.049425048828125,0.0014045150019228458,-0.00017691496759653091,0.0004973593167960644
1782943349722410000,6.059409912109375,0.003064922522753477,-0.0006682770326733589,0.0020329011604189873
1782943349732395000,6.06939501953125,0.00035648769699037075,-0.000331120565533638,-0.002687818370759487
1782943349742379800,6.0793798828125,0.003925363998860121,0.0002418849617242813,-0.0015401304699480534
1782943349752364800,6.08936474609375,-0.001467004418373108,0.00167759507894516,0.0004114336334168911
1782943349762349800,6.099349853515625,-0.0006989156827330589,-0.0024178624153137207,-0.0007036877796053886
1782943349772334800,6.1093349609375,0.003169059520587325,0.0014911256730556488,-0.002702389843761921
1782943349782319900,6.11931982421875,-0.00030645448714494705,0.0002967696636915207,0.0007846797816455364
1782943349792305000,6.129304931640625,-0.00005718274042010307,-0.003222597762942314,0.0013484712690114975
1782943349802289000,6.139288818359375,0.0001931656152009964,0.0017914753407239914,-0.0015903864987194538
1782943349812274000,6.14927392578125,0.001381468027830124,-0.003031243570148945,0.002346830442547798
1782943349822259000,6.159259033203125,-0.00010147690773010254,0.0005077440291643143,-0.0008441065438091755
1782943349832244000,6.169243896484375,0.00024233711883425713,0.00017538107931613922,0.0006659058853983879
1782943349842229000,6.17922900390625,0.000748189864680171,-0.0002743257209658623,-0.0015840539708733559
1782943349852213800,6.1892138671875,0.0002800058573484421,-0.0011004386469721794,0.0006290324963629246
1782943349862198800,6.19919873046875,-0.001423574984073639,-0.000989212654531002,-0.0007976479828357697
1782943349872183800,6.209183837890625,0.0003546178340911865,0.002703259699046612,0.00032221153378486633
1782943349882169000,6.219169189453125,0.0009914322290569544,-0.0018380740657448769,0.000053439754992723465
1782943349892153900,6.22915380859375,0.00034428411163389683,-0.00026973895728588104,-0.0012943861074745655
1782943349902139000,6.239138916015625,-0.0008635912090539932,-0.000646485947072506,-0.0009591025300323963
1782943349912123000,6.249122802734375,-0.00033229077234864235,-0.002843594178557396,0.0002446463331580162
1782943349922108000,6.25910791015625,-0.0013308078050613403,0.00008740648627281189,-0.0012124385684728622
1782943349932093000,6.269093017578125,-0.0016277502290904522,-0.00158026535063982,-0.0006632953882217407
1782943349942078000,6.279077880859375,0.002183488802984357,-0.00042017921805381775,0.0001849774271249771
1782943349952062700,6.289062744140625,-0.0012189657427370548,-0.0028758803382515907,-0.0037706159055233
1782943349962047700,6.2990478515625,0.0012350264005362988,-0.0011439155787229538,-0.0008049183525145054
1782943349972032800,6.30903271484375,0.000756456283852458,-0.0049330610781908035,-0.0013956078328192234
1782943349982018000,6.31901806640625,0.0028370050713419914,-0.005082759074866772,-0.00140658812597394
1782943349992003000,6.329003173828125,-0.0011976836249232292,-0.004201519303023815,-0.0018667825497686863
1782943350001987800,6.33898779296875,0.00219728727824986,-0.007277623284608126,-0.003173411823809147
1782943350011971800,6.348971923828125,0.0015237738844007254,-0.00746830552816391,-0.0018785828724503517
1782943350021956900,6.358956787109375,0.0010791707318276167,-0.006830048747360706,-0.00301924254745245
1782943350031942000,6.36894189453125,0.0013337689451873302,-0.006842033006250858,-0.0033912863582372665
1782943350041927000,6.378927001953125,0.003960497677326202,-0.003870188258588314,-0.0018534869886934757
1782943350051912000,6.388911865234375,0.0020520761609077454,-0.0056600989773869514,-0.0008321651257574558
1782943350061896700,6.398896728515625,0.001922160154208541,-0.006056478712707758,-0.0013626450672745705
1782943350071882000,6.408882080078125,0.003642295952886343,-0.007621618453413248,-0.00256319809705019
1782943350081867000,6.418866943359375,0.005061487201601267,-0.007720744237303734,-0.003500295802950859
1782943350091852000,6.42885205078125,0.00506281852722168,-0.0013983994722366333,-0.002454472705721855
1782943350101836800,6.4388369140625,0.0013129687868058681,-0.002703554928302765,-0.0027128267101943493
1782943350111821800,6.44882177734375,0.00013425340875983238,-0.002772531472146511,-0.00029920414090156555
1782943350121805800,6.458805908203125,-0.002537984400987625,0.001763196662068367,-0.00002735760062932968
1782943350131790800,6.468790771484375,0.0023430571891367435,-0.001023801974952221,-0.0021712020970880985
1782943350141776000,6.47877587890625,0.000995482550933957,-0.0024130214005708694,-0.0014783781953155994
1782943350151761000,6.488760986328125,0.0016940298955887556,-0.006456498522311449,-0.0038302154280245304
1782943350161745700,6.49874560546875,0.0046553839929401875,0.0033904537558555603,-0.0013372818939387798
1782943350171731000,6.50873095703125,0.0031264631543308496,0.012263840064406395,0.0037554807495325804
1782943350181716000,6.518716064453125,0.0039023756980895996,0.007554521784186363,-0.002050368580967188
1782943350191701000,6.528700927734375,0.002346556866541505,0.004558732733130455,0.0009901621378958225
1782943350201686000,6.53868603515625,0.0012004291638731956,0.005209910683333874,-0.001037337351590395
1782943350211670800,6.5486708984375,0.0010339815635234118,0.005412311293184757,-0.001801664475351572
1782943350221655800,6.55865576171875,0.0018104780465364456,0.0029652100056409836,0.0002051927149295807
1782943350231639800,6.568639892578125,0.001183037180453539,0.005060585215687752,-0.0011242576874792576
1782943350241624800,6.578624755859375,-0.0006066379137337208,0.01441125012934208,-0.0014494233764708042
1782943350251609900,6.58860986328125,0.0026253745891153812,0.05595683306455612,0.009614412672817707
1782943350261595000,6.598594970703125,0.00009489292278885841,0.10115133225917816,0.02551700361073017
1782943350271580000,6.608579833984375,0.0018810750916600227,-0.0017737140879034996,-0.005308021325618029
1782943350281565000,6.61856494140625,-0.0022642635740339756,-0.0027137072756886482,-0.0026000281795859337
1782943350291550000,6.628550048828125,-0.002667998895049095,-0.006663973908871412,-0.0009486023336648941
1782943350301535000,6.638534912109375,0.0010339885484427214,-0.006760674528777599,-0.005805795080959797
1782943350311519700,6.648519775390625,0.002142928773537278,0.004955902695655823,0.0011154944077134132
1782943350321504800,6.6585048828125,-0.0003299955278635025,-0.0007255449891090393,0.000672860536724329
1782943350331488800,6.66848876953125,-0.0014248210936784744,-0.00006534717977046967,-0.0015186546370387077
1782943350341473800,6.678473876953125,-0.0005644825287163258,-0.0003990866243839264,0.0014388933777809143
1782943350351458800,6.688458740234375,-0.0009980453178286552,-0.0009767264127731323,0.0000479244627058506
1782943350361444000,6.698444091796875,-0.0008794274181127548,0.0029880646616220474,-0.0023791836574673653
1782943350371428900,6.708428955078125,-0.00016916217282414436,-0.002086055465042591,-0.0031749363988637924
1782943350381414000,6.718413818359375,-0.00003925943747162819,0.0017277905717492104,0.0019271750934422016
1782943350391399000,6.72839892578125,-0.0009601805359125137,-0.00043496303260326385,0.0012525967322289944
1782943350401384000,6.738384033203125,-0.00048724422231316566,-0.0011747069656848907,0.0006338017992675304
1782943350411369000,6.748368896484375,-0.00036074407398700714,-0.0008806940168142319,0.0017179744318127632
1782943350421353700,6.758353759765625,-0.0007139397785067558,0.0004260968416929245,0.00024014804512262344
1782943350431338800,6.7683388671875,0.001165985595434904,-0.0005390327423810959,0.0018098154105246067
1782943350441322800,6.77832275390625,0.0031311926431953907,-0.0010471418499946594,-0.0012482544407248497
1782943350451307800,6.788307861328125,-0.0003937673754990101,0.0014064284041523933,0.00025323592126369476
1782943350461293000,6.79829296875,0.00005192449316382408,-0.0008185869082808495,0.00027398206293582916
1782943350471278000,6.808278076171875,-0.0015686089172959328,-0.0006763739511370659,0.00017677666619420052
1782943350481262800,6.818262939453125,0.0008596167899668217,-0.002946256659924984,0.002579888328909874
1782943350491247900,6.828247802734375,-0.0011593257077038288,0.0003312956541776657,-0.001457730308175087
1782943350501233000,6.83823291015625,-0.0005608387291431427,0.0017915377393364906,-0.0003265663981437683
1782943350511218000,6.848218017578125,-0.00010170973837375641,0.001114029437303543,0.0008316426537930965
1782943350521202700,6.85820263671875,-0.00041224202141165733,0.003225593827664852,-0.0011337026953697205
1782943350531187700,6.868187744140625,-0.0012245061807334423,0.000638333149254322,0.0037137833423912525
1782943350541173000,6.878173095703125,0.0011856169439852238,0.002943548373878002,0.0002533453516662121
1782943350551157000,6.888156982421875,-0.002669575158506632,-0.0009246934205293655,0.00003789551556110382
1782943350561142000,6.89814208984375,0.000035793986171483994,0.0009958771988749504,-0.0006615421734750271
1782943350571127000,6.908126953125,0.0008925329893827438,-0.0010851165279746056,-0.0011680745519697666
1782943350581111800,6.91811181640625,0.0017148323822766542,0.0007110927253961563,0.0013914387673139572
1782943350591096800,6.928096923828125,-0.0036282679066061974,0.0018131090328097343,-0.0011217864230275154
1782943350601081900,6.938081787109375,-0.0013853381387889385,-0.0016387663781642914,0.0000639832578599453
1782943350611067000,6.94806689453125,0.0005768788978457451,0.00019774958491325378,0.0003675837069749832
1782943350621052000,6.958052001953125,0.00042899814434349537,-0.0004960363730788231,0.001745383720844984
1782943350631037000,6.968036865234375,-0.00002187490463256836,-0.0015138965100049973,-0.00003493949770927429
1782943350641022000,6.97802197265625,0.0004968941211700439,0.0010151956230401993,-0.0005429349839687347
1782943350651006000,6.988005859375,0.0016678860411047935,0.000044473446905612946,0.00040914537385106087
1782943350660991000,6.997990966796875,-0.0014844154939055443,-0.00135093554854393,0.002267284318804741
1782943350670976000,7.00797607421875,-0.00024071941152215004,0.00018064863979816437,0.0012049493379890919
1782943350680960800,7.017960693359375,-0.0013611563481390476,0.003254663199186325,0.0014812606386840343
1782943350690945800,7.02794580078125,-0.0015430501662194729,-0.0006609829142689705,-0.00020798202604055405
1782943350700930800,7.037930908203125,-0.0013371575623750687,-0.0008932510390877724,0.001168067567050457
1782943350710915800,7.047915771484375,-0.0004026545211672783,0.00030836742371320724,-0.0010143928229808807
1782943350720900900,7.05790087890625,-0.0016833157278597355,0.010120381601154804,0.005227047484368086
1782943350730886000,7.067885986328125,-0.0051888348534703255,0.1499967873096466,0.0465872697532177
1782943350740871000,7.077870849609375,0.0017878732178360224,-0.05525941401720047,-0.013983286917209625
1782943350750856000,7.08785595703125,-0.0014001969248056412,0.03115217201411724,0.011776404455304146
1782943350760840000,7.09783984375,0.0010804375633597374,0.022268621250987053,0.005624272394925356
1782943350770825000,7.107824951171875,-0.0003419569693505764,-0.000665188767015934,0.0015051611699163914
1782943350780810000,7.11781005859375,-0.0016511823050677776,-0.01010061427950859,-0.004311046097427607
1782943350790794800,7.127794677734375,-0.0005923095159232616,-0.010686243884265423,-0.0037754843942821026
1782943350800779800,7.13777978515625,0.0009629181586205959,-0.027730658650398254,-0.008534276857972145
1782943350810764800,7.147764892578125,0.0013839637394994497,-0.039042964577674866,-0.012940743938088417
1782943350820750000,7.15775,-0.0023284610360860825,-0.016466116532683372,-0.004757052753120661
1782943350830734800,7.16773486328125,-0.00046717748045921326,0.004866603761911392,0.0034018070437014103
1782943350840720000,7.177719970703125,0.0024046837352216244,-0.00313542690128088,-0.0025348765775561333
